delay,freq,condition,trials.thisRepN,trials.thisTrialN,trials.thisN,trials.thisIndex,thisRow.t,notes,trial.started,polygon.started,polygon_2.started,key_resp.started,polygon.stopped,trial.stopped,key_resp.keys,key_resp.rt,key_resp.duration,beep.started,sound_1.started,sound_1.stopped,beep.stopped,response.started,text.started,textbox.started,button.started,response.stopped,textbox.text,button.numClicks,button.timesOn,button.timesOff,participant,session,date,expName,psychopyVersion,frameRate,expStart,
0.7,1000,exp,0,0,0,8,0.025884700007736683,,0.021215999964624643,0.025884700007736683,1.0007523999665864,1.0007523999665864,1.0340832999791019,2.2926577999605797,space,1.186985399981495,None,2.2932802999857813,3.000224566673084,3.3191342999925837,3.3014393000048585,3.3015005000052042,3.3191342999925837,3.3191342999925837,3.3191342999925837,7.450662599992938,678 ,1,[4.14606229995843],[4.146074999996927],1,001,2024-11-12_13h08.55.177,Intentional Binding Task,2024.1.5,None,2024-11-12 13h09.06.533314 +0530,
0.1,1000,exp,0,1,1,6,7.465591399988625,,7.452055800007656,7.465591399988625,8.465894599969033,8.465894599969033,8.465894599969033,8.566895800002385,space,0.08563469996443018,None,8.567638499953318,8.682465966620173,8.994795699953102,8.981377899996005,8.981424099998549,8.994795699953102,8.994795699953102,8.994795699953102,12.032654599985108,6754,1,[3.049283300002571],[3.049291200004518],1,001,2024-11-12_13h08.55.177,Intentional Binding Task,2024.1.5,None,2024-11-12 13h09.06.533314 +0530,
0.4,400,unexp,0,2,2,1,12.048021800001152,,12.033488799992483,12.048021800001152,13.047992399951909,13.047992399951909,13.047992399951909,14.066985599987675,space,1.0044879000051878,None,14.067677299957722,14.481215666634187,14.79456339997705,14.781232799985446,14.781279599992558,14.79456339997705,14.79456339997705,14.79456339997705,18.28099519998068,987,1,[3.4974811000283808],[3.497488000022713],1,001,2024-11-12_13h08.55.177,Intentional Binding Task,2024.1.5,None,2024-11-12 13h09.06.533314 +0530,
0.7,400,unexp,0,3,3,2,18.29669649997959,,18.28161700000055,18.29669649997959,19.29649039998185,19.29649039998185,19.29649039998185,20.34913319995394,space,1.0410059000132605,None,20.349986899993382,21.063017366632508,21.37564049998764,21.361899099953007,21.361949599988293,21.37564049998764,21.37564049998764,21.37564049998764,25.92966979998164,897,1,[4.565866099961568],[4.565875799977221],1,001,2024-11-12_13h08.55.177,Intentional Binding Task,2024.1.5,None,2024-11-12 13h09.06.533314 +0530,
0.1,400,unexp,0,4,4,0,25.945038399950135,,25.930443999997806,25.945038399950135,26.944661899993662,26.944661899993662,26.944661899993662,27.480523799953517,space,0.5178985999664292,None,27.48135249997722,27.594442866630075,27.904971199983265,27.89124129997799,27.89130469999509,27.904971199983265,27.904971199983265,27.904971199983265,33.86127799999667,567,1,[5.967422200017609],[5.967431899975054],1,001,2024-11-12_13h08.55.177,Intentional Binding Task,2024.1.5,None,2024-11-12 13h09.06.533314 +0530,
0.4,1000,exp,0,5,5,4,33.87657079997007,,33.862058500002604,33.87657079997007,34.87686819996452,34.87686819996452,34.87686819996452,35.529696899990086,space,0.6384336000191979,None,35.53071159997489,35.94321716664514,36.25496629998088,36.241759399999864,36.24180979997618,36.25496629998088,36.25496629998088,36.25496629998088,42.776074499997776,908,1,[6.5319439000450075],[6.5319551000138745],1,001,2024-11-12_13h08.55.177,Intentional Binding Task,2024.1.5,None,2024-11-12 13h09.06.533314 +0530,
0.7,1000,exp,0,6,6,5,42.79145570000401,,42.77692350000143,42.79145570000401,43.79155769996578,43.79155769996578,43.79155769996578,44.32674569997471,space,0.5301570000010543,None,44.327360499999486,45.0414305666384,45.36245679995045,45.353837799979374,45.353857499954756,45.36245679995045,45.36245679995045,45.36245679995045,51.8914466999704,576,1,[6.536147799983155],[6.536156599991955],1,001,2024-11-12_13h08.55.177,Intentional Binding Task,2024.1.5,None,2024-11-12 13h09.06.533314 +0530,
0.1,1000,exp,0,7,7,3,51.906427199952304,,51.89224389998708,51.906427199952304,52.906350799952634,52.906350799952634,52.906350799952634,53.47573740000371,space,0.5655258999904618,None,53.4766246000072,53.58933216665561,53.90493439999409,53.89161890000105,53.89167549996637,53.90493439999409,53.90493439999409,53.90493439999409,58.939320499950554,349,1,[5.045586300024297],[5.045594099967275],1,001,2024-11-12_13h08.55.177,Intentional Binding Task,2024.1.5,None,2024-11-12 13h09.06.533314 +0530,
0.4,1000,exp,0,8,8,10,58.954693599953316,,58.93999789998634,58.954693599953316,59.954677899950184,59.954677899950184,59.954677899950184,60.523996599949896,space,0.5612382999970578,None,60.524801399966236,60.93764536665209,61.24495769996429,61.23085599998012,61.23090259998571,61.24495769996429,61.24495769996429,61.24495769996429,64.77134519995889,586,1,[3.538474300003145],[3.5384824000066146],1,001,2024-11-12_13h08.55.177,Intentional Binding Task,2024.1.5,None,2024-11-12 13h09.06.533314 +0530,
0.4,1000,exp,0,9,9,7,64.78663039999083,,64.77196529996581,64.78663039999083,65.7866420999635,65.7866420999635,65.7866420999635,66.65573989995755,space,0.8538493000087328,None,66.6567006999976,67.06991016667259,67.38634999998612,67.37202690000413,67.37208269996336,67.38634999998612,67.38634999998612,67.38634999998612,69.43681709998054,984,1,[2.0627818999928422],[2.0627885999856517],1,001,2024-11-12_13h08.55.177,Intentional Binding Task,2024.1.5,None,2024-11-12 13h09.06.533314 +0530,
0.7,1000,exp,0,10,10,11,69.45260379998945,,69.43745849997504,69.45260379998945,70.45256169995992,70.45256169995992,70.45256169995992,71.80534279998392,space,1.3474299000226893,None,71.80640979995951,72.5190631666376,72.82613649999257,72.81151119997958,72.81158819998382,72.82613649999257,72.82613649999257,72.82613649999257,75.47013949998654,786,1,[2.6558101000264287],[2.6558221000013873],1,001,2024-11-12_13h08.55.177,Intentional Binding Task,2024.1.5,None,2024-11-12 13h09.06.533314 +0530,
0.1,1000,exp,0,11,11,9,75.48461609997321,,75.47140929999296,75.48461609997321,76.4843384999549,76.4843384999549,76.4843384999549,79.00326529995073,space,2.504746199992951,None,79.00420989998383,79.11734906665903,79.42569209996145,79.411331899988,79.41139239998301,79.42569209996145,79.42569209996145,79.42569209996145,85.13351979997242,795,1,[5.720049000054132],[5.720055700046942],1,001,2024-11-12_13h08.55.177,Intentional Binding Task,2024.1.5,None,2024-11-12 13h09.06.533314 +0530,
0.7,1000,exp,1,0,12,11,85.149179,,85.13414039998315,85.149179,86.14926320000086,86.14926320000086,86.14926320000086,86.66701989999274,space,0.501974499959033,None,86.66764080000576,87.38139296666874,87.69337339996127,87.68079349998152,87.68084099999396,87.69337339996127,87.69337339996127,87.69337339996127,90.58258220000425,459,1,[2.8999666000017896],[2.899974400002975],1,001,2024-11-12_13h08.55.177,Intentional Binding Task,2024.1.5,None,2024-11-12 13h09.06.533314 +0530,
0.7,400,unexp,1,1,13,2,90.59816839999985,,90.58349940000335,90.59816839999985,91.59826020000037,91.59826020000037,91.59826020000037,92.65002780000214,space,1.040816500026267,None,92.65066499996465,93.36409886664866,93.67556689999765,93.66166809998685,93.66198529995745,93.67556689999765,93.67556689999765,93.67556689999765,98.51393949997146,345,1,[4.849031399993692],[4.8490393999964],1,001,2024-11-12_13h08.55.177,Intentional Binding Task,2024.1.5,None,2024-11-12 13h09.06.533314 +0530,
0.4,1000,exp,1,2,14,10,98.52961179998238,,98.51454020000529,98.52961179998238,99.52966349996859,99.52966349996859,99.52966349996859,100.16578759998083,space,0.6178894999902695,None,100.16682889999356,100.57968496665514,100.89616649999516,100.88198659999762,100.88203549996251,100.89616649999516,100.89616649999516,100.89616649999516,103.72965699998895,798,1,[2.845652100048028],[2.845660599996336],1,001,2024-11-12_13h08.55.177,Intentional Binding Task,2024.1.5,None,2024-11-12 13h09.06.533314 +0530,
0.4,1000,exp,1,3,15,4,103.74501799995778,,103.73033900000155,103.74501799995778,104.74521009996533,104.74521009996533,104.74521009996533,105.1307863999973,space,0.37222329998621717,None,105.13194579997798,105.545044966628,105.85475189995486,105.84122519998346,105.84129299997585,105.85475189995486,105.85475189995486,105.85475189995486,107.67939649999607,687,1,[1.8352370000211522],[1.8352458999725059],1,001,2024-11-12_13h08.55.177,Intentional Binding Task,2024.1.5,None,2024-11-12 13h09.06.533314 +0530,
0.4,400,unexp,1,4,16,1,107.6944203999592,,107.68020999996224,107.6944203999592,108.69453519996023,108.69453519996023,108.69453519996023,109.0801088999724,space,0.37991870002588257,None,109.08082939998712,109.49430916662483,109.80350109998835,109.79111349995947,109.79115819995059,109.80350109998835,109.80350109998835,109.80350109998835,111.92827629996464,687,1,[2.134102600044571],[2.134111700055655],1,001,2024-11-12_13h08.55.177,Intentional Binding Task,2024.1.5,None,2024-11-12 13h09.06.533314 +0530,
0.1,400,unexp,1,5,17,0,111.94341889995849,,111.92918999999529,111.94341889995849,112.94355929997982,112.94355929997982,112.94355929997982,113.42976179998368,space,0.4755158999469131,None,113.43068489996949,113.54360866663434,113.85470510000596,113.84147589997156,113.84155719995033,113.85470510000596,113.85470510000596,113.85470510000596,115.92738149996148,685,1,[2.0833868000190705],[2.083394400018733],1,001,2024-11-12_13h08.55.177,Intentional Binding Task,2024.1.5,None,2024-11-12 13h09.06.533314 +0530,
0.4,1000,exp,1,6,18,7,115.9426131999935,,115.92819919995964,115.9426131999935,116.94268969999393,116.94268969999393,116.94268969999393,117.41131850000238,space,0.45189829997252673,None,117.41205859999172,117.82586786663548,118.13647129997844,118.12138799997047,118.12144919997081,118.13647129997844,118.13647129997844,118.13647129997844,120.85935019998578,458,1,[2.735075999982655],[2.7350831999792717],1,001,2024-11-12_13h08.55.177,Intentional Binding Task,2024.1.5,None,2024-11-12 13h09.06.533314 +0530,
0.1,1000,exp,1,7,19,3,120.87482019996969,,120.86002909997478,120.87482019996969,121.87514139997074,121.87514139997074,121.87514139997074,122.51084730000002,space,0.627825399977155,None,122.511634399998,122.62501846661714,122.93723459995817,122.92155979998643,122.92162569996435,122.93723459995817,122.93723459995817,122.93723459995817,127.17470939998748,348,1,[4.249532099987846],[4.249539599986747],1,001,2024-11-12_13h08.55.177,Intentional Binding Task,2024.1.5,None,2024-11-12 13h09.06.533314 +0530,
0.1,1000,exp,1,8,20,6,127.1902437999961,,127.17543060000753,127.1902437999961,128.19038379995618,128.19038379995618,128.19038379995618,128.69333499995992,space,0.48652340000262484,None,128.69433440000284,128.8068713666328,129.1162826999789,129.10185189999174,129.10190589999547,129.1162826999789,129.1162826999789,129.1162826999789,131.97407409996958,967,1,[2.8699666000320576],[2.8699738000286743],1,001,2024-11-12_13h08.55.177,Intentional Binding Task,2024.1.5,None,2024-11-12 13h09.06.533314 +0530,
0.7,1000,exp,1,9,21,5,131.98929100000532,,131.9747086999705,131.98929100000532,132.98939909995534,132.98939909995534,132.98939909995534,134.57466509996448,space,1.5772988999960944,None,134.57551499997498,135.28890136664657,135.60315379995154,135.59111969999503,135.5911611999618,135.60315379995154,135.60315379995154,135.60315379995154,138.05721889995039,954,1,[2.4636188999866135],[2.463645000010729],1,001,2024-11-12_13h08.55.177,Intentional Binding Task,2024.1.5,None,2024-11-12 13h09.06.533314 +0530,
0.1,1000,exp,1,10,22,9,138.07148619997315,,138.0587103999569,138.07148619997315,139.07135869999183,139.07135869999183,139.07135869999183,140.09075899998425,space,1.00800769997295,None,140.09189599996898,140.20426476665696,140.5151985999546,140.50108489999548,140.50113599997712,140.5151985999546,140.5151985999546,140.5151985999546,143.63874719996238,956,1,[3.1348484000191092],[3.134866000036709],1,001,2024-11-12_13h08.55.177,Intentional Binding Task,2024.1.5,None,2024-11-12 13h09.06.533314 +0530,
0.7,1000,exp,1,11,23,8,143.65351829997962,,143.63994759996422,143.65351829997962,144.65354169998318,144.65354169998318,144.65354169998318,145.37291909998748,space,0.7038076000171714,None,145.3738571999711,146.08658676664734,146.39513429999352,146.381343999994,146.38140229997225,146.39513429999352,146.39513429999352,146.39513429999352,149.83650609996403,956,1,[3.453159299970139],[3.4531686999835074],1,001,2024-11-12_13h08.55.177,Intentional Binding Task,2024.1.5,None,2024-11-12 13h09.06.533314 +0530,
0.7,400,unexp,2,0,24,2,149.85229939996498,,149.83725109999068,149.85229939996498,150.85189130000072,150.85189130000072,150.85189130000072,151.47111609997228,space,0.609530099958647,None,151.47187119995942,152.1850102666688,152.49324869998964,152.48051439999836,152.48055399995064,152.49324869998964,152.49324869998964,152.49324869998964,155.3186268999707,956,1,[2.836082299996633],[2.8360917000100017],1,001,2024-11-12_13h08.55.177,Intentional Binding Task,2024.1.5,None,2024-11-12 13h09.06.533314 +0530,
0.7,1000,exp,2,1,25,5,155.33422869996866,,155.31931219995022,155.33422869996866,156.33440369996242,156.33440369996242,156.33440369996242,157.48544859996764,space,1.1429170000483282,None,157.48616679996485,158.200611966666,158.5153527999646,158.50163579999935,158.50169449998066,158.5153527999646,158.5153527999646,158.5153527999646,162.18368679995183,956,1,[3.6798389999894425],[3.679847699997481],1,001,2024-11-12_13h08.55.177,Intentional Binding Task,2024.1.5,None,2024-11-12 13h09.06.533314 +0530,
0.1,1000,exp,2,2,26,6,162.19935730000725,,162.18440009996993,162.19935730000725,163.19955229997868,163.19955229997868,163.19955229997868,164.1684545999742,space,0.9646544000133872,None,164.16910629998893,164.28258806665352,164.59652009996353,164.58160289999796,164.58168050000677,164.59652009996353,164.59652009996353,164.59652009996353,167.98413539998,956,1,[3.398985499981791],[3.398998999968171],1,001,2024-11-12_13h08.55.177,Intentional Binding Task,2024.1.5,None,2024-11-12 13h09.06.533314 +0530,
0.4,400,unexp,2,3,27,1,167.9984827999724,,167.9851270999643,167.9984827999724,168.99845909996657,168.99845909996657,168.99845909996657,169.81612410000525,space,0.8128206999972463,None,169.8167539999704,170.23104476667166,170.54473049996886,170.53112309996504,170.53117749997182,170.54473049996886,170.54473049996886,170.54473049996886,172.73211569996784,584,1,[2.198725900030695],[2.198737800004892],1,001,2024-11-12_13h08.55.177,Intentional Binding Task,2024.1.5,None,2024-11-12 13h09.06.533314 +0530,
0.1,1000,exp,2,4,28,9,172.7472763999831,,172.73283389996504,172.7472763999831,173.7469097999856,173.7469097999856,173.7469097999856,174.70042529999046,space,0.9397371000377461,None,174.70139740000013,174.81372886663692,175.12459389999276,175.11112209997373,175.1112487000064,175.12459389999276,175.12459389999276,175.12459389999276,178.83034159999806,956,1,[3.7167111999588087],[3.71671939996304],1,001,2024-11-12_13h08.55.177,Intentional Binding Task,2024.1.5,None,2024-11-12 13h09.06.533314 +0530,
0.7,1000,exp,2,5,29,11,178.8460974000045,,178.83104719995754,178.8460974000045,179.8460295999539,179.8460295999539,179.8460295999539,181.29741609998746,space,1.4449291999917477,None,181.29801609995775,182.01225696661666,182.32486910000443,182.31173119996674,182.3117809999967,182.32486910000443,182.32486910000443,182.32486910000443,186.9293275999953,985,1,[4.614838599984068],[4.614850000012666],1,001,2024-11-12_13h08.55.177,Intentional Binding Task,2024.1.5,None,2024-11-12 13h09.06.533314 +0530,
0.4,1000,exp,2,6,30,7,186.94442569999956,,186.93062840000493,186.94442569999956,187.9443062999635,187.9443062999635,187.96094349998748,188.3295026999549,space,0.36845459998585284,None,188.3301960999961,188.74419996666646,189.0589046999812,189.04434039996704,189.04439599998295,189.0589046999812,189.0589046999812,189.0589046999812,191.52740199997788,485,1,[2.48085049999645],[2.480856499983929],1,001,2024-11-12_13h08.55.177,Intentional Binding Task,2024.1.5,None,2024-11-12 13h09.06.533314 +0530,
0.4,1000,exp,2,7,31,10,191.54325950000202,,191.5279074999853,191.54325950000202,192.5431047999882,192.5431047999882,192.5431047999882,193.22920859995065,space,0.6722602000227198,None,193.229898999969,193.64291646663722,193.9546439999831,193.94148219999624,193.9415214000037,193.9546439999831,193.9546439999831,193.9546439999831,196.9261053999653,864,1,[2.9827991999918595],[2.9828075999976136],1,001,2024-11-12_13h08.55.177,Intentional Binding Task,2024.1.5,None,2024-11-12 13h09.06.533314 +0530,
0.7,1000,exp,2,8,32,8,196.9419347999501,,196.92666389996884,196.9419347999501,197.925388499978,197.925388499978,197.94220579997636,198.84459870000137,space,0.9150462999823503,None,198.84541429998353,199.55839376664179,199.86478149995673,199.85141929995734,199.8515078999917,199.86478149995673,199.86478149995673,199.86478149995673,205.7249989999691,945 ,1,[5.871453700005077],[5.871461600007024],1,001,2024-11-12_13h08.55.177,Intentional Binding Task,2024.1.5,None,2024-11-12 13h09.06.533314 +0530,
0.1,1000,exp,2,9,33,3,205.74018759996397,,205.72575179999694,205.74018759996397,206.7400107999565,206.7400107999565,206.7400107999565,207.7418787999777,space,0.9997775999945588,None,207.74221319996286,207.85670056665938,208.1626756999758,208.15194489998976,208.1519690999994,208.1626756999758,208.1626756999758,208.1626756999758,212.55804209999042,495,1,[4.403782900015358],[4.403811600001063],1,001,2024-11-12_13h08.55.177,Intentional Binding Task,2024.1.5,None,2024-11-12 13h09.06.533314 +0530,
0.4,1000,exp,2,10,34,4,212.57209089997923,,212.55943609995302,212.57209089997923,213.57227679999778,213.57227679999778,213.57227679999778,214.82472569996025,space,1.2437142000417225,None,214.8257265999564,215.23872046661953,215.5469396999688,215.53512939997017,215.5352031000075,215.5469396999688,215.5469396999688,215.5469396999688,218.98879779997515,845,1,[3.4512291999999434],[3.4512414999771863],1,001,2024-11-12_13h08.55.177,Intentional Binding Task,2024.1.5,None,2024-11-12 13h09.06.533314 +0530,
0.1,400,unexp,2,11,35,0,219.00392399996053,,218.9898339000065,219.00392399996053,220.00375989999156,220.00375989999156,220.00375989999156,220.9895900999545,space,0.9817983999964781,None,220.99032989999978,221.10405226663377,221.41424660000484,221.40088489995105,221.40093149995664,221.41424660000484,221.41424660000484,221.41424660000484,225.7710809999844,956,1,[4.367600599944126],[4.367611199966632],1,001,2024-11-12_13h08.55.177,Intentional Binding Task,2024.1.5,None,2024-11-12 13h09.06.533314 +0530,
0.1,1000,exp,3,0,36,9,225.78595729998779,,225.77201849996345,225.78595729998779,226.78626419999637,226.78626419999637,226.78626419999637,228.20339039998362,space,1.4120531000080518,None,228.20414449996315,228.31892346666817,228.63422919996083,228.6219376999652,228.6219795999932,228.63422919996083,228.63422919996083,228.63422919996083,231.5361028999905,956,1,[2.9119441999937408],[2.9119515999918804],1,001,2024-11-12_13h08.55.177,Intentional Binding Task,2024.1.5,None,2024-11-12 13h09.06.533314 +0530,
0.7,1000,exp,3,1,37,5,231.55144259997178,,231.53686309995828,231.55144259997178,232.5514122999739,232.5514122999739,232.5514122999739,233.43677470000694,space,0.8812204000423662,None,233.43742529995507,234.1511869666322,234.46428139996715,234.45109459996456,234.45115129998885,234.46428139996715,234.46428139996715,234.46428139996715,237.41807009995682,945,1,[2.9644187000230886],[2.964426300022751],1,001,2024-11-12_13h08.55.177,Intentional Binding Task,2024.1.5,None,2024-11-12 13h09.06.533314 +0530,
0.7,1000,exp,3,2,38,8,237.43343549995916,,237.4186812999542,237.43343549995916,238.43361089995597,238.43361089995597,238.43361089995597,239.25238119997084,space,0.8138976999907754,None,239.25325429998338,239.96651576663524,240.27661139995325,240.2607854999951,240.2608289999771,240.27661139995325,240.27661139995325,240.27661139995325,244.81622739997692,456,1,[4.553647499997169],[4.553655199997593],1,001,2024-11-12_13h08.55.177,Intentional Binding Task,2024.1.5,None,2024-11-12 13h09.06.533314 +0530,
0.4,1000,exp,3,3,39,7,244.83199959999183,,244.8168892999529,244.83199959999183,245.83183389995247,245.83183389995247,245.83183389995247,247.23371979995864,space,1.3889671000069939,None,247.23441709997132,247.64817596663877,247.95368829998188,247.94086749997223,247.94091109995497,247.95368829998188,247.95368829998188,247.95368829998188,252.21528519998537,956,1,[4.27236909995554],[4.272379099973477],1,001,2024-11-12_13h08.55.177,Intentional Binding Task,2024.1.5,None,2024-11-12 13h09.06.533314 +0530,
0.7,400,unexp,3,4,40,2,252.23028550000163,,252.21608799998648,252.23028550000163,253.2305067999987,253.2305067999987,253.2305067999987,253.84852800000226,space,0.6109248999855481,None,253.8491971999756,254.5632502666597,254.8761469000019,254.86166559997946,254.86174249998294,254.8761469000019,254.8761469000019,254.8761469000019,258.19685829995433,956,1,[3.3327270000008866],[3.3327356000081636],1,001,2024-11-12_13h08.55.177,Intentional Binding Task,2024.1.5,None,2024-11-12 13h09.06.533314 +0530,
0.1,1000,exp,3,5,41,6,258.212339199963,,258.1979051999515,258.212339199963,259.21247549995314,259.21247549995314,259.21247549995314,260.18183889996726,space,0.9545043000252917,None,260.182769899955,260.29567946662814,260.6051670999732,260.5910263999831,260.591073699994,260.6051670999732,260.6051670999732,260.6051670999732,263.16303549997974,956,1,[2.5697482000105083],[2.5697589999763295],1,001,2024-11-12_13h08.55.177,Intentional Binding Task,2024.1.5,None,2024-11-12 13h09.06.533314 +0530,
0.1,1000,exp,3,6,42,3,263.1782021999825,,263.1640422999626,263.1782021999825,264.17814219999127,264.17814219999127,264.17814219999127,264.846247199981,space,0.6633127999957651,None,264.84697309997864,264.96083326667235,265.27586239995435,265.261268000002,265.26132299995515,265.27586239995435,265.27586239995435,265.27586239995435,269.779483899998,895,1,[4.515314100019168],[4.515331500035245],1,001,2024-11-12_13h08.55.177,Intentional Binding Task,2024.1.5,None,2024-11-12 13h09.06.533314 +0530,
0.4,1000,exp,3,7,43,4,269.7932584999944,,269.78085789998295,269.7932584999944,270.7932351999916,270.7932351999916,270.7932351999916,271.2444440999534,space,0.43518390000099316,None,271.24511039996287,271.65945796663095,271.97489199996926,271.96149929997046,271.961556299997,271.97489199996926,271.97489199996926,271.97489199996926,275.57646720000776,895,1,[3.612739000003785],[3.612747200008016],1,001,2024-11-12_13h08.55.177,Intentional Binding Task,2024.1.5,None,2024-11-12 13h09.06.533314 +0530,
0.1,400,unexp,3,8,44,0,275.5919210999855,,275.57706429995596,275.5919210999855,276.5920508999843,276.5920508999843,276.5920508999843,277.92857299995376,space,1.3195288999704644,None,277.9295081999735,278.04192536662254,278.35739590000594,278.34813139995094,278.3481509999838,278.35739590000594,278.35739590000594,278.35739590000594,281.05936179996934,596,1,[2.7096339999698102],[2.7096450999961235],1,001,2024-11-12_13h08.55.177,Intentional Binding Task,2024.1.5,None,2024-11-12 13h09.06.533314 +0530,
0.7,1000,exp,3,9,45,11,281.0743322999915,,281.0603201999911,281.0743322999915,282.0738427999895,282.0738427999895,282.0738427999895,282.82628999999724,space,0.7488201999804005,None,282.826991799986,283.54055976664336,283.8557526000077,283.84128860000055,283.8413588999538,283.8557526000077,283.8557526000077,283.8557526000077,288.55771779996576,756,1,[4.713587299978826],[4.713598699949216],1,001,2024-11-12_13h08.55.177,Intentional Binding Task,2024.1.5,None,2024-11-12 13h09.06.533314 +0530,
0.4,1000,exp,3,10,46,10,288.57259479997447,,288.5584392999881,288.57259479997447,289.57251509994967,289.57251509994967,289.57251509994967,290.19202679995215,space,0.6024527000263333,None,290.19296289997874,290.60591116664386,290.91538369999034,290.9012295999564,290.90129269997124,290.91538369999034,290.91538369999034,290.91538369999034,295.1404363999609,596 ,1,[4.236251399968751],[4.236266599968076],1,001,2024-11-12_13h08.55.177,Intentional Binding Task,2024.1.5,None,2024-11-12 13h09.06.533314 +0530,
0.4,400,unexp,3,11,47,1,295.1547658999916,,295.1415768999723,295.1547658999916,296.15445559995715,296.15445559995715,296.15445559995715,296.8233692999929,space,0.6659773999708705,None,296.8241413999931,297.2379090666693,297.54909939999925,297.5345143000013,297.53456289996393,297.54909939999925,297.54909939999925,297.54909939999925,299.7890163999982,695,1,[2.2513838000013493],[2.2513981999945827],1,001,2024-11-12_13h08.55.177,Intentional Binding Task,2024.1.5,None,2024-11-12 13h09.06.533314 +0530,
0.4,1000,exp,4,0,48,7,299.8039415999665,,299.7903938999516,299.8039415999665,300.80354399996577,300.80354399996577,300.80354399996577,304.63923729996895,space,3.8213643999770284,None,304.64023059996543,305.0529816666424,305.36459129996365,305.35177239996847,305.351881199982,305.36459129996365,305.36459129996365,305.36459129996365,311.51850369997555,956,1,[6.16470580000896],[6.164712600002531],1,001,2024-11-12_13h08.55.177,Intentional Binding Task,2024.1.5,None,2024-11-12 13h09.06.533314 +0530,
0.1,1000,exp,4,1,49,9,311.53441439999733,,311.5190712999902,311.53441439999733,312.5344299999997,312.5344299999997,312.5344299999997,313.5518647999852,space,1.0123675999930128,None,313.5523159999866,313.6673626666345,313.9756925999536,313.9613827999565,313.9614453999675,313.9756925999536,313.9756925999536,313.9756925999536,317.6507579999743,956,1,[3.687183099973481],[3.687190599972382],1,001,2024-11-12_13h08.55.177,Intentional Binding Task,2024.1.5,None,2024-11-12 13h09.06.533314 +0530,
0.7,1000,exp,4,2,50,5,317.66645689995494,,317.6514947999967,317.66645689995494,318.66663489997154,318.66663489997154,318.66663489997154,320.1348485999624,space,1.4625795000465587,None,320.13551989995176,320.8492304666472,321.16586149996147,321.15177779999794,321.1518277999712,321.16586149996147,321.16586149996147,321.16586149996147,323.01622489996953,456,1,[1.862340599996969],[1.8623474999913014],1,001,2024-11-12_13h08.55.177,Intentional Binding Task,2024.1.5,None,2024-11-12 13h09.06.533314 +0530,
0.4,1000,exp,4,3,51,4,323.03181229997426,,323.01680339995073,323.03181229997426,324.0320451000007,324.0320451000007,324.0320451000007,324.8676779999514,space,0.8266494999988936,None,324.86843370000133,325.28170486662225,325.5963224999723,325.5815708999871,325.5816263000015,325.5963224999723,325.5963224999723,325.5963224999723,329.93159209995065,456,1,[4.347779200004879],[4.3477892999653704],1,001,2024-11-12_13h08.55.177,Intentional Binding Task,2024.1.5,None,2024-11-12 13h09.06.533314 +0530,
0.1,400,unexp,4,4,52,0,329.94721059995936,,329.93213390000165,329.94721059995936,330.9472262999625,330.9472262999625,330.9472262999625,332.55005869996967,space,1.5989733000169508,None,332.5508611999685,332.6635889666543,332.9742287999834,332.96141649998026,332.9614862999879,332.9742287999834,332.9742287999834,332.9742287999834,335.23151979997056,904,1,[2.267304500041064],[2.2673176000243984],1,001,2024-11-12_13h08.55.177,Intentional Binding Task,2024.1.5,None,2024-11-12 13h09.06.533314 +0530,
0.4,400,unexp,4,5,53,1,335.2461201999686,,335.23241739999503,335.2461201999686,336.24621630000183,336.24621630000183,336.24621630000183,338.08186009997735,space,1.8205792999942787,None,338.082723599975,338.49550076661785,338.80473469995195,338.7913071999792,338.79136989999097,338.80473469995195,338.80473469995195,338.80473469995195,344.27934179996373,856,1,[5.485032199998386],[5.485045599984005],1,001,2024-11-12_13h08.55.177,Intentional Binding Task,2024.1.5,None,2024-11-12 13h09.06.533314 +0530,
0.1,1000,exp,4,6,54,3,344.29454430000624,,344.2807275999803,344.29454430000624,345.2944812999922,345.2944812999922,345.2944812999922,346.5284414999769,space,1.218093500006944,None,346.5291483000037,346.6437611666663,346.95553519995883,346.94190079998225,346.9419704999891,346.95553519995883,346.95553519995883,346.95553519995883,353.47721439995803,894 ,1,[6.532410499989055],[6.532421699957922],1,001,2024-11-12_13h08.55.177,Intentional Binding Task,2024.1.5,None,2024-11-12 13h09.06.533314 +0530,
0.4,1000,exp,4,7,55,10,353.492681099975,,353.4784287000075,353.492681099975,354.49251619999995,354.49251619999995,354.49251619999995,355.81201319996035,space,1.306756000034511,None,355.8128147999523,356.22519566666256,356.53350489999866,356.5208990999963,356.52094709995436,356.53350489999866,356.53350489999866,356.53350489999866,359.05881919997046,895,1,[2.5360598000115715],[2.5360680000158027],1,001,2024-11-12_13h08.55.177,Intentional Binding Task,2024.1.5,None,2024-11-12 13h09.06.533314 +0530,
0.1,1000,exp,4,8,56,6,359.0742624999839,,359.0595704999869,359.0742624999839,360.0740771999699,360.0740771999699,360.0740771999699,360.9250635000062,space,0.8398355999961495,None,360.92545229999814,361.04064856662103,361.35540129995206,361.34157469996717,361.3416265999549,361.35540129995206,361.35540129995206,361.35540129995206,364.0082362999674,956,1,[2.6642835999955423],[2.664295399968978],1,001,2024-11-12_13h08.55.177,Intentional Binding Task,2024.1.5,None,2024-11-12 13h09.06.533314 +0530,
0.7,400,unexp,4,9,57,2,364.02330899995286,,364.00902040000074,364.02330899995286,365.0234791999683,365.0234791999683,365.0234791999683,366.1429853999871,space,1.1150461999932304,None,366.14378419995774,366.8560331666415,367.1656870999723,367.1515123999561,367.15158109995537,367.1656870999723,367.1656870999723,367.1656870999723,376.33854039997095,497,1,[9.184643500018865],[9.184656299999915],1,001,2024-11-12_13h08.55.177,Intentional Binding Task,2024.1.5,None,2024-11-12 13h09.06.533314 +0530,
0.7,1000,exp,4,10,58,8,376.3540498999646,,376.3395394999534,376.3540498999646,377.35417710000183,377.35417710000183,377.35417710000183,377.8891195000033,space,0.5225070999586023,None,377.88992190000135,378.60406316665853,378.91344189998927,378.9008647999726,378.90091699996265,378.91344189998927,378.91344189998927,378.91344189998927,382.20463999995263,923,1,[3.3007846999680623],[3.300795199989807],1,001,2024-11-12_13h08.55.177,Intentional Binding Task,2024.1.5,None,2024-11-12 13h09.06.533314 +0530,
0.7,1000,exp,4,11,59,11,382.21970640000654,,382.20552429999225,382.21970640000654,383.2194790999638,383.2194790999638,383.2194790999638,383.72233759996016,space,0.49843839998357,None,383.72309129999485,384.43600046664164,384.7445175999892,384.73096019995864,384.73101689998293,384.7445175999892,384.7445175999892,384.7445175999892,388.3530822999892,785,1,[3.6197061999700963],[3.61971870000707],1,001,2024-11-12_13h08.55.177,Intentional Binding Task,2024.1.5,None,2024-11-12 13h09.06.533314 +0530,
0.4,400,unexp,5,0,60,1,388.3680161999655,,388.3538798999507,388.3680161999655,389.36795469996287,389.36795469996287,389.36795469996287,390.5364035999519,space,1.1555149999912828,None,390.5370475999662,390.95114446664616,391.26599459996214,391.25140479998663,391.2514695999562,391.26599459996214,391.26599459996214,391.26599459996214,394.38532169995597,967,1,[3.1311259000212885],[3.1311365999863483],1,001,2024-11-12_13h08.55.177,Intentional Binding Task,2024.1.5,None,2024-11-12 13h09.06.533314 +0530,
0.4,1000,exp,5,1,61,7,394.40032630000496,,394.3866020999849,394.40032630000496,395.40011439996306,395.40011439996306,395.40011439996306,396.01832079997985,space,0.6129653999814764,None,396.0190414999961,396.43317726662303,396.74551869998686,396.731775799999,396.73185619997093,396.74551869998686,396.74551869998686,396.74551869998686,402.399853299954,867,1,[5.665407399996184],[5.665415199997369],1,001,2024-11-12_13h08.55.177,Intentional Binding Task,2024.1.5,None,2024-11-12 13h09.06.533314 +0530,
0.7,400,unexp,5,2,62,2,402.4150678999722,,402.40057779999916,402.4150678999722,403.41488559998106,403.41488559998106,403.41488559998106,404.30036269995617,space,0.8716185999801382,None,404.3012024000054,405.0149266666306,405.33366059995024,405.31949399999576,405.3195303999819,405.33366059995024,405.33366059995024,405.33366059995024,408.0648483999539,934,1,[2.743478199990932],[2.743485699989833],1,001,2024-11-12_13h08.55.177,Intentional Binding Task,2024.1.5,None,2024-11-12 13h09.06.533314 +0530,
0.7,1000,exp,5,3,63,5,408.0805002999841,,408.06580639997264,408.0805002999841,409.0807339999592,409.0807339999592,409.0807339999592,410.1827060999931,space,1.094926999998279,None,410.18339209997794,410.89685516665145,411.20494399999734,411.19106539996574,411.19112440000754,411.20494399999734,411.20494399999734,411.20494399999734,414.7473386999918,956,1,[3.553630299982615],[3.553640500002075],1,001,2024-11-12_13h08.55.177,Intentional Binding Task,2024.1.5,None,2024-11-12 13h09.06.533314 +0530,
0.4,1000,exp,5,4,64,4,414.7624211999937,,414.7481208999525,414.7624211999937,415.76212009997107,415.76212009997107,415.76212009997107,417.03170499997213,space,1.25367460004054,None,417.0325463999761,417.44571016665236,417.75494019995676,417.74119699996663,417.74125149997417,417.75494019995676,417.75494019995676,417.75494019995676,421.0292782000033,894,1,[3.2859422999899834],[3.2859477000311017],1,001,2024-11-12_13h08.55.177,Intentional Binding Task,2024.1.5,None,2024-11-12 13h09.06.533314 +0530,
0.7,1000,exp,5,5,65,11,421.04434429999674,,421.0297252999735,421.04434429999674,422.044540199975,422.044540199975,422.044540199975,422.71329200000037,space,0.656821199983824,None,422.7142348999623,423.4274170666506,423.727872199961,423.71681769995485,423.7168473000056,423.727872199961,423.727872199961,423.727872199961,426.3440911999787,856,1,[2.6263659999822266],[2.6263716999674216],1,001,2024-11-12_13h08.55.177,Intentional Binding Task,2024.1.5,None,2024-11-12 13h09.06.533314 +0530,
0.1,1000,exp,5,6,66,6,426.35992439999245,,426.3445274999831,426.35992439999245,427.3434873999795,427.3434873999795,427.36003330000676,429.0119999999879,space,1.6633089000242762,None,429.0127091999748,429.126546766671,429.4355501999962,429.42142989998683,429.4214840999921,429.4355501999962,429.4355501999962,429.4355501999962,431.360382999992,345,1,[1.9368770999717526],[1.936889800010249],1,001,2024-11-12_13h08.55.177,Intentional Binding Task,2024.1.5,None,2024-11-12 13h09.06.533314 +0530,
0.1,400,unexp,5,7,67,0,431.375755999994,,431.3615800999687,431.375755999994,432.3756143999635,432.3756143999635,432.3756143999635,434.061337799998,space,1.6803443999961019,None,434.0620865999954,434.1751317666533,434.4854696999537,434.47086699999636,434.4709160999628,434.4854696999537,434.4854696999537,434.4854696999537,438.1754536999506,856,1,[3.7023036999744363],[3.7023142999969423],1,001,2024-11-12_13h08.55.177,Intentional Binding Task,2024.1.5,None,2024-11-12 13h09.06.533314 +0530,
0.1,1000,exp,5,8,68,9,438.1909655999625,,438.1763974999776,438.1909655999625,439.1907151999767,439.1907151999767,439.1907151999767,440.3929532999755,space,1.1978663000045344,None,440.39373239997076,440.5072786666608,440.8141454999568,440.80094669997925,440.8009925999795,440.8141454999568,440.8141454999568,440.8141454999568,442.97470239998074,867,1,[2.1711900000227615],[2.171199999982491],1,001,2024-11-12_13h08.55.177,Intentional Binding Task,2024.1.5,None,2024-11-12 13h09.06.533314 +0530,
0.7,1000,exp,5,9,69,8,442.9898242999916,,442.97565499995835,442.9898242999916,443.9898589999648,443.9898589999648,443.9898589999648,444.4920071999659,space,0.497655900020618,None,444.4927566999686,445.2057304666416,,445.4915837000008,445.4916482999688,445.50604579999344,445.50604579999344,445.50604579999344,451.1242848999682,958,1,[5.630359699949622],[5.630371699982788],1,001,2024-11-12_13h08.55.177,Intentional Binding Task,2024.1.5,None,2024-11-12 13h09.06.533314 +0530,
0.4,1000,exp,5,10,70,10,451.13818819995504,,451.1248861000058,451.13818819995504,452.13826549996156,452.13826549996156,452.13826549996156,453.2739403999876,space,1.1193283000029624,None,453.27476359996945,453.6877457666599,453.99609209998744,453.98122229997534,453.9812873000046,453.99609209998744,453.99609209998744,453.99609209998744,456.5057048999588,868,1,[2.521647199988365],[2.521663499996066],1,001,2024-11-12_13h08.55.177,Intentional Binding Task,2024.1.5,None,2024-11-12 13h09.06.533314 +0530,
0.1,1000,exp,5,11,71,3,456.52012649999233,,456.5069790999987,456.52012649999233,457.52023540000664,457.52023540000664,457.52023540000664,458.5058314999915,space,0.9750318999867886,None,458.506710799993,458.61980226665423,458.9345911999699,458.92121869995026,458.92127329995856,458.9345911999699,458.9345911999699,458.9345911999699,461.75852279999526,758,1,[2.8350616000243463],[2.835067700012587],1,001,2024-11-12_13h08.55.177,Intentional Binding Task,2024.1.5,None,2024-11-12 13h09.06.533314 +0530,
0.1,1000,exp,6,0,72,3,461.76901749998797,,461.7590597999515,461.76901749998797,462.7691831999691,462.7691831999691,462.7691831999691,465.7202777999919,space,2.941721100010909,None,465.7209173999727,465.8350605666676,466.1460560999694,466.1314310999587,466.1314909000066,466.1460560999694,466.1460560999694,466.1460560999694,469.3526259000064,895,1,[3.2183146000024863],[3.218323600012809],1,001,2024-11-12_13h08.55.177,Intentional Binding Task,2024.1.5,None,2024-11-12 13h09.06.533314 +0530,
0.1,1000,exp,6,1,73,9,469.36771619995125,,469.35346709995065,469.36771619995125,470.36773349996656,470.36773349996656,470.36773349996656,471.1530630000052,space,0.7751427000039257,None,471.15378940000664,471.2672832666469,471.57556269998895,471.5613442999893,471.56139739998616,471.57556269998895,471.57556269998895,471.57556269998895,475.5339831999736,967 ,1,[3.9705248999525793],[3.970532299950719],1,001,2024-11-12_13h08.55.177,Intentional Binding Task,2024.1.5,None,2024-11-12 13h09.06.533314 +0530,
0.4,400,unexp,6,2,74,1,475.54948769998737,,475.53454009996494,475.54948769998737,476.54988849995425,476.54988849995425,476.54988849995425,477.2521264999523,space,0.6897595999762416,None,477.2529248999781,477.6658592666538,477.9743728999747,477.9608191999723,477.96087029995397,477.9743728999747,477.9743728999747,477.9743728999747,480.21616619999986,967,1,[2.2534987999824807],[2.2535048999707215],1,001,2024-11-12_13h08.55.177,Intentional Binding Task,2024.1.5,None,2024-11-12 13h09.06.533314 +0530,
0.7,1000,exp,6,3,75,11,480.2319082999602,,480.21675869997125,480.2319082999602,481.23233249998884,481.23233249998884,481.23233249998884,482.50115249998635,space,1.2607950000092387,None,482.50193269999,483.2147714666246,483.5268521999824,483.5108715999522,483.5109194999677,483.5268521999824,483.5268521999824,483.5268521999824,485.34911429998465,905,1,[1.8356604000437073],[1.8356696999981068],1,001,2024-11-12_13h08.55.177,Intentional Binding Task,2024.1.5,None,2024-11-12 13h09.06.533314 +0530,
0.7,1000,exp,6,4,76,5,485.3640538000036,,485.3498263999936,485.3640538000036,486.3642535999534,486.3642535999534,486.3642535999534,487.08330889994977,space,0.7118378999875858,None,487.0840441999608,487.7971558666361,488.1058694999665,488.09115150000434,488.09122010000283,488.1058694999665,488.1058694999665,488.1058694999665,489.6651390999905,456,1,[1.5712094000191428],[1.5712157000089064],1,001,2024-11-12_13h08.55.177,Intentional Binding Task,2024.1.5,None,2024-11-12 13h09.06.533314 +0530,
0.1,400,unexp,6,5,77,0,489.6799011999974,,489.66557879996253,489.6799011999974,490.6800723999622,490.6800723999622,490.6800723999622,491.41697019996354,space,0.732956399966497,None,491.41784700000426,491.52959316666625,491.8466368999798,491.83159099996556,491.83165489998646,491.8466368999798,491.8466368999798,491.8466368999798,493.96352439996554,906,1,[2.1294481999939308],[2.129459499963559],1,001,2024-11-12_13h08.55.177,Intentional Binding Task,2024.1.5,None,2024-11-12 13h09.06.533314 +0530,
0.7,400,unexp,6,6,78,2,493.978909700003,,493.9646085999557,493.978909700003,494.9791380999959,494.9791380999959,494.9791380999959,495.9141936999513,space,0.9282403000397608,None,495.91491999995196,496.6286129666298,496.93938080000225,496.924180299975,496.92423909995705,496.93938080000225,496.93938080000225,496.93938080000225,501.2954477999592,895,1,[4.368814799992833],[4.368822299991734],1,001,2024-11-12_13h08.55.177,Intentional Binding Task,2024.1.5,None,2024-11-12 13h09.06.533314 +0530,
0.7,1000,exp,6,7,79,8,501.31076379999286,,501.2961153999786,501.31076379999286,502.3119133999571,502.3119133999571,502.3119133999571,502.9974983999855,space,0.6764385999995284,None,502.9984379999805,503.7101169666314,504.0249629999744,504.0112309999531,504.01128729997436,504.0249629999744,504.0249629999744,504.0249629999744,507.44408139999723,845,1,[3.4307023000437766],[3.430710899992846],1,001,2024-11-12_13h08.55.177,Intentional Binding Task,2024.1.5,None,2024-11-12 13h09.06.533314 +0530,
0.4,1000,exp,6,8,80,4,507.4595391000039,,507.4447849999997,507.4595391000039,508.46157099999255,508.46157099999255,508.46157099999255,509.2120778999524,space,0.7348666000179946,None,509.21282580000116,509.6258955666601,509.9347007999895,509.9211525999708,509.92121619998943,509.9347007999895,509.9347007999895,509.9347007999895,511.7935585999512,896,1,[1.8702235999517143],[1.8702333999681287],1,001,2024-11-12_13h08.55.177,Intentional Binding Task,2024.1.5,None,2024-11-12 13h09.06.533314 +0530,
0.1,1000,exp,6,9,81,6,511.8084668999654,,511.79422029998386,511.8084668999654,512.8084237999865,512.8084237999865,512.8084237999865,513.4444748999667,space,0.625531800033059,None,513.4453886999981,513.5582598666699,513.8636993999826,513.8509794999845,513.8510206000064,513.8636993999826,513.8636993999826,513.8636993999826,516.8591708999593,758,1,[3.0062094999593683],[3.0062210999894887],1,001,2024-11-12_13h08.55.177,Intentional Binding Task,2024.1.5,None,2024-11-12 13h09.06.533314 +0530,
0.4,1000,exp,6,10,82,7,516.8743637999869,,516.8603641999653,516.8743637999869,517.8742177999811,517.8742177999811,517.8742177999811,518.4923537999857,space,0.6051502000191249,None,518.4930185999838,518.9068650666197,519.2148739999975,519.2010281999828,519.2010744999861,519.2148739999975,519.2148739999975,519.2148739999975,522.0743354999577,895,1,[2.8714684000005946],[2.8714774000109173],1,001,2024-11-12_13h08.55.177,Intentional Binding Task,2024.1.5,None,2024-11-12 13h09.06.533314 +0530,
0.4,1000,exp,6,11,83,10,522.0896760000032,,522.0749652999802,522.0896760000032,523.0898974000011,523.0898974000011,523.0898974000011,525.1253119999892,space,2.023081000021193,None,525.126195299963,525.5390604666356,525.8488075999776,525.8405939000077,525.8406165000051,525.8488075999776,525.8488075999776,525.8488075999776,528.7065001999727,956,1,[2.8644752000109293],[2.8644870999851264],1,001,2024-11-12_13h08.55.177,Intentional Binding Task,2024.1.5,None,2024-11-12 13h09.06.533314 +0530,
0.4,1000,exp,7,0,84,4,528.7217282999773,,528.7075670000049,528.7217282999773,529.7217724999646,529.7217724999646,529.7217724999646,530.790953299962,space,1.0552056999877095,None,530.7918405999662,531.2046187666167,531.5155470999889,531.5010392999975,531.5010980999796,531.5155470999889,531.5155470999889,531.5155470999889,534.3558715999825,674,1,[2.851703299966175],[2.8517152999993414],1,001,2024-11-12_13h08.55.177,Intentional Binding Task,2024.1.5,None,2024-11-12 13h09.06.533314 +0530,
0.4,1000,exp,7,1,85,10,534.3705604999559,,534.3568794999737,534.3705604999559,535.3702161999536,535.3702161999536,535.3702161999536,536.3228106999886,space,0.9444324999931268,None,536.3235630999552,536.7369362666543,537.046745700005,537.0312455999665,537.031320399954,537.046745700005,537.046745700005,537.046745700005,539.4376924999524,878,1,[2.403474799997639],[2.4034855000209063],1,001,2024-11-12_13h08.55.177,Intentional Binding Task,2024.1.5,None,2024-11-12 13h09.06.533314 +0530,
0.1,1000,exp,7,2,86,3,539.4530129999621,,539.4388478999608,539.4530129999621,540.452997699962,540.452997699962,540.452997699962,541.7873210999533,space,1.3260549000115134,None,541.788050299976,541.9021058666442,542.2150975999539,542.2011223000009,542.2011889999849,542.2150975999539,542.2150975999539,542.2150975999539,544.7042359999614,834,1,[2.4998142000404187],[2.499837599985767],1,001,2024-11-12_13h08.55.177,Intentional Binding Task,2024.1.5,None,2024-11-12 13h09.06.533314 +0530,
0.4,400,unexp,7,3,87,1,544.7184350999887,,544.7057372999843,544.7184350999887,545.7183826999972,545.7183826999972,545.7183826999972,546.6526636999915,space,0.9184968000045046,None,546.6532597999903,547.0678580666465,547.3759889999637,547.3611311999848,547.3611919999821,547.3759889999637,547.3759889999637,547.3759889999637,551.101828999992,956,1,[3.738134900049772],[3.7381458000163548],1,001,2024-11-12_13h08.55.177,Intentional Binding Task,2024.1.5,None,2024-11-12 13h09.06.533314 +0530,
0.1,1000,exp,7,4,88,6,551.1170016999822,,551.1028098999523,551.1170016999822,552.1166372000007,552.1166372000007,552.1166372000007,553.6858061999665,space,1.5613148999982513,None,553.686535899993,553.7998257666516,554.1131094999728,554.1007563999738,554.1007991999504,554.1131094999728,554.1131094999728,554.1131094999728,556.8835981999873,985,1,[2.781092200020794],[2.781098200008273],1,001,2024-11-12_13h08.55.177,Intentional Binding Task,2024.1.5,None,2024-11-12 13h09.06.533314 +0530,
0.4,1000,exp,7,5,89,7,556.8990295999683,,556.8841093999799,556.8990295999683,557.8991636999999,557.8991636999999,557.8991636999999,558.7343041999848,space,0.8211955999722704,None,558.7346594999544,559.1486962666424,559.4566000999766,559.4434411999537,559.4434786000056,559.4566000999766,559.4566000999766,559.4566000999766,567.5657692999812,945 ,1,[8.120099899999332],[8.120117300015409],1,001,2024-11-12_13h08.55.177,Intentional Binding Task,2024.1.5,None,2024-11-12 13h09.06.533314 +0530,
0.7,1000,exp,7,6,90,5,567.580059800006,,567.5669059999636,567.580059800006,568.5803937999881,568.5803937999881,568.5803937999881,569.583694299974,space,0.9996157000423409,None,569.5846363999881,570.2960982666739,570.6052269999636,570.5909749999992,570.5910857999697,570.6052269999636,570.6052269999636,570.6052269999636,574.1632051999914,456 ,1,[3.56992070004344],[3.569930800003931],1,001,2024-11-12_13h08.55.177,Intentional Binding Task,2024.1.5,None,2024-11-12 13h09.06.533314 +0530,
0.7,1000,exp,7,7,91,11,574.178681499965,,574.1639888999634,574.178681499965,575.1788334999583,575.1788334999583,575.1788334999583,576.1146436999552,space,0.9280262000393122,None,576.1154700999614,576.8283552666583,577.1340758999577,577.1209021999966,577.1209474999923,577.1340758999577,577.1340758999577,577.1340758999577,578.8458924999577,345,1,[1.7227404000004753],[1.722752399975434],1,001,2024-11-12_13h08.55.177,Intentional Binding Task,2024.1.5,None,2024-11-12 13h09.06.533314 +0530,
0.1,1000,exp,7,8,92,9,578.8612464999896,,578.8468034999678,578.8612464999896,579.8609621999785,579.8609621999785,579.8609621999785,582.1125052999705,space,2.2365682999952696,None,582.1132581999991,582.2271058666558,582.532387299987,582.520582099969,582.5206199999666,582.532387299987,582.532387299987,582.532387299987,585.3772594999755,845,1,[2.854843199951574],[2.8548526999657042],1,001,2024-11-12_13h08.55.177,Intentional Binding Task,2024.1.5,None,2024-11-12 13h09.06.533314 +0530,
0.1,400,unexp,7,9,93,0,585.3929316999856,,585.37808699999,585.3929316999856,586.3927804999985,586.3927804999985,586.3927804999985,587.3949298999505,space,0.9959736000164412,None,587.3956253000069,587.509317366643,587.8253652999992,587.811435199983,587.8114966999856,587.8253652999992,587.8253652999992,587.8253652999992,590.2266058999812,845,1,[2.412697199964896],[2.4127054999698885],1,001,2024-11-12_13h08.55.177,Intentional Binding Task,2024.1.5,None,2024-11-12 13h09.06.533314 +0530,
0.7,1000,exp,7,10,94,8,590.2418384999619,,590.2273539999733,590.2418384999619,591.2421830999665,591.2421830999665,591.2421830999665,591.8942746999674,space,0.6498661999939941,None,591.8949685999542,592.6081903666529,592.9143824999919,592.901014300005,592.9010621999623,592.9143824999919,592.9143824999919,592.9143824999919,595.2090690999757,934,1,[2.3057207000092603],[2.3057294000172988],1,001,2024-11-12_13h08.55.177,Intentional Binding Task,2024.1.5,None,2024-11-12 13h09.06.533314 +0530,
0.7,400,unexp,7,11,95,2,595.2241479999502,,595.2098282999941,595.2241479999502,596.2242908999906,596.2242908999906,596.2242908999906,597.0431561999721,space,0.8057393000344746,None,597.0439642999554,597.7570233666377,598.0655498999986,598.0509737999528,598.0510423999513,598.0655498999986,598.0655498999986,598.0655498999986,599.5412936999928,845,1,[1.4880492000374943],[1.488059199997224],1,001,2024-11-12_13h08.55.177,Intentional Binding Task,2024.1.5,None,2024-11-12 13h09.06.533314 +0530,
0.7,1000,exp,8,0,96,5,599.5565486999694,,599.5423236999777,599.5565486999694,600.5567890999955,600.5567890999955,600.5567890999955,601.5259374000016,space,0.9610450999462046,None,601.5267102999496,602.239626366649,602.554416399973,602.5414106999524,602.5414599999785,602.554416399973,602.554416399973,602.554416399973,605.0570600999636,945,1,[2.5134344000252895],[2.5134487000177614],1,001,2024-11-12_13h08.55.177,Intentional Binding Task,2024.1.5,None,2024-11-12 13h09.06.533314 +0530,
0.1,400,unexp,8,1,97,0,605.0722787999548,,605.0580232999637,605.0722787999548,606.0720889999648,606.0720889999648,606.0720889999648,608.0902296999702,space,2.009109999984503,None,608.0908616999513,608.2050242666194,608.5154270000057,608.5007036000025,608.5007366999635,608.5154270000057,608.5154270000057,608.5154270000057,617.9872738999547,854,1,[9.485012500023004],[9.485020700027235],1,001,2024-11-12_13h08.55.177,Intentional Binding Task,2024.1.5,None,2024-11-12 13h09.06.533314 +0530,
0.4,1000,exp,8,2,98,10,618.0026674999972,,617.9879422999802,618.0026674999972,619.0027168999659,619.0027168999659,619.0027168999659,619.521827199962,space,0.5121230999939144,None,619.5226626999793,619.9351711666716,620.2401595999836,620.2268055999884,620.226854199951,620.2401595999836,620.2401595999836,620.2401595999836,623.1196287999628,845,1,[2.8905556999961846],[2.8905665000202134],1,001,2024-11-12_13h08.55.177,Intentional Binding Task,2024.1.5,None,2024-11-12 13h09.06.533314 +0530,
0.1,1000,exp,8,3,99,3,623.1348995000008,,623.1203383999527,623.1348995000008,624.1349844000069,624.1349844000069,624.1349844000069,624.6701454999857,space,0.5181868999497965,None,624.6710519999615,624.7847173666271,625.0952356999624,625.0806528999819,625.0807012000005,625.0952356999624,625.0952356999624,625.0952356999624,628.8353720000014,284,1,[3.7517552000354044],[3.751766100001987],1,001,2024-11-12_13h08.55.177,Intentional Binding Task,2024.1.5,None,2024-11-12 13h09.06.533314 +0530,
0.7,1000,exp,8,4,100,8,628.8505461000022,,628.8361798999831,628.8505461000022,629.8504971999791,629.8504971999791,629.8504971999791,630.4537462999579,space,0.60058010002831,None,630.4544755999814,631.1668564666218,631.4756333999685,631.4610884999856,631.4611423999886,631.4756333999685,631.4756333999685,631.4756333999685,634.6340298999567,934,1,[3.1706831000046805],[3.1706913000089116],1,001,2024-11-12_13h08.55.177,Intentional Binding Task,2024.1.5,None,2024-11-12 13h09.06.533314 +0530,
0.7,400,unexp,8,5,101,2,634.6491222999757,,634.6348264999688,634.6491222999757,635.6493767999928,635.6493767999928,635.6493767999928,636.9836039000074,space,1.3174046000349335,None,636.9844678999507,637.6982584666732,638.0065479999757,637.9911225999822,637.9911850999924,638.0065479999757,638.0065479999757,638.0065479999757,641.1154843999539,932,1,[3.121722800016869],[3.1217304000165313],1,001,2024-11-12_13h08.55.177,Intentional Binding Task,2024.1.5,None,2024-11-12 13h09.06.533314 +0530,
0.4,1000,exp,8,6,102,4,641.1311780999531,,641.1161863000016,641.1311780999531,642.1310878999648,642.1310878999648,642.1310878999648,642.8666072000051,space,0.7212645999970846,None,642.867318799952,643.2809794666284,643.5953399999999,643.5812288000016,643.5812925999635,643.5953399999999,643.5953399999999,643.5953399999999,647.0477192999679,125,1,[3.464233700011391],[3.464240000001155],1,001,2024-11-12_13h08.55.177,Intentional Binding Task,2024.1.5,None,2024-11-12 13h09.06.533314 +0530,
0.1,1000,exp,8,7,103,9,647.0633158999844,,647.0482701999717,647.0633158999844,648.0631334999925,648.0631334999925,648.0631334999925,648.6324711999623,space,0.5616160000208765,None,648.6338258999749,648.7464285666395,649.0474240999902,649.0391162000014,649.0391348999692,649.0474240999902,649.0474240999902,649.0474240999902,652.2467373999534,236,1,[3.206338800024241],[3.2063500999938697],1,001,2024-11-12_13h08.55.177,Intentional Binding Task,2024.1.5,None,2024-11-12 13h09.06.533314 +0530,
0.4,400,unexp,8,8,104,1,652.2618816999602,,652.2476360999863,652.2618816999602,653.2613132999977,653.2613132999977,653.2613132999977,654.0982700999593,space,0.8221076999907382,None,654.0991031999583,654.5119721666599,654.8249830999994,654.8112566999625,654.8113073999994,654.8249830999994,654.8249830999994,654.8249830999994,658.9792617000057,478,1,[4.16544030001387],[4.16545099997893],1,001,2024-11-12_13h08.55.177,Intentional Binding Task,2024.1.5,None,2024-11-12 13h09.06.533314 +0530,
0.7,1000,exp,8,9,105,11,658.9938058999833,,658.9804271999747,658.9938058999833,659.9941465999582,659.9941465999582,659.9941465999582,660.6462695999653,space,0.6456551000010222,None,660.6470419999678,661.3604607666532,661.6749167999951,661.6614540999872,661.6615109999548,661.6749167999951,661.6749167999951,661.6749167999951,664.5274731999962,987,1,[2.863694600004237],[2.863702700007707],1,001,2024-11-12_13h08.55.177,Intentional Binding Task,2024.1.5,None,2024-11-12 13h09.06.533314 +0530,
0.4,1000,exp,8,10,106,7,664.5427886999678,,664.528311299975,664.5427886999678,665.5428974999813,665.5428974999813,665.5428974999813,666.2439695000066,space,0.6846724000060931,None,666.2447011999902,666.6588727666569,666.9738948000013,666.9609928999562,666.9610279999906,666.9738948000013,666.9738948000013,666.9738948000013,669.5598897999735,765,1,[2.597024100017734],[2.5970339000341482],1,001,2024-11-12_13h08.55.177,Intentional Binding Task,2024.1.5,None,2024-11-12 13h09.06.533314 +0530,
0.1,1000,exp,8,11,107,6,669.5750972999958,,669.5606511000078,669.5750972999958,670.5751835999545,670.5751835999545,670.5751835999545,672.7109592999914,space,2.1329047000035644,None,672.7120173999574,672.8245685666373,673.1342736999504,673.121299099992,673.121352599992,673.1342736999504,673.1342736999504,673.1342736999504,676.4749381999718,654,1,[3.351342999958433],[3.3513525999733247],1,001,2024-11-12_13h08.55.177,Intentional Binding Task,2024.1.5,None,2024-11-12 13h09.06.533314 +0530,
0.4,1000,exp,9,0,108,7,676.4900321000023,,676.4756723999744,676.4900321000023,677.4901526999893,677.4901526999893,677.4901526999893,678.1076942999498,space,0.6137152999872342,None,678.1082284000004,678.5231867666628,678.8344925999991,678.8214864999754,678.8215359000023,678.8344925999991,678.8344925999991,678.8344925999991,680.6410157000064,432,1,[1.8170692000421695],[1.8170798000064678],1,001,2024-11-12_13h08.55.177,Intentional Binding Task,2024.1.5,None,2024-11-12 13h09.06.533314 +0530,
0.4,400,unexp,9,1,109,1,680.6563786999905,,680.6419573999592,680.6563786999905,681.6560324999737,681.6560324999737,681.6560324999737,682.5588158000028,space,0.8861662000417709,None,682.5597184999497,682.9721093666196,683.2857684000046,683.2711432999931,683.2712193999905,683.2857684000046,683.2857684000046,683.2857684000046,687.3059342000051,743,1,[4.032038100005593],[4.03204600000754],1,001,2024-11-12_13h08.55.177,Intentional Binding Task,2024.1.5,None,2024-11-12 13h09.06.533314 +0530,
0.1,1000,exp,9,2,110,9,687.3212767999503,,687.3065855999594,687.3212767999503,688.3216568999924,688.3216568999924,688.3216568999924,689.2912749999668,space,0.9554572000051849,None,689.292122099956,689.4044744666355,689.7140320999897,689.7012186999782,689.7012837000075,689.7140320999897,689.7140320999897,689.7140320999897,694.1045297999517,765,1,[4.400826700031757],[4.400834200030658],1,001,2024-11-12_13h08.55.177,Intentional Binding Task,2024.1.5,None,2024-11-12 13h09.06.533314 +0530,
0.7,400,unexp,9,3,111,2,694.1199133999762,,694.1051578999613,694.1199133999762,695.1199190999614,695.1199190999614,695.1199190999614,695.8234029999585,space,0.6990054000052623,None,695.8243006999837,696.5359818666514,696.8447420999873,696.8308506999747,696.830899099994,696.8447420999873,696.8447420999873,696.8447420999873,699.4196994999656,109,1,[2.5868977999780327],[2.586970600008499],1,001,2024-11-12_13h08.55.177,Intentional Binding Task,2024.1.5,None,2024-11-12 13h09.06.533314 +0530,
0.7,1000,exp,9,4,112,5,699.4353633999708,,699.4203968999791,699.4353633999708,700.4355753999553,700.4355753999553,700.4355753999553,700.9379263999872,space,0.49875369999790564,None,700.938708200003,701.6517488666616,701.964803299983,701.9513517000014,701.9514016999747,701.964803299983,701.964803299983,701.964803299983,706.4350161000038,245,1,[4.481610099959653],[4.481619999976829],1,001,2024-11-12_13h08.55.177,Intentional Binding Task,2024.1.5,None,2024-11-12 13h09.06.533314 +0530,
0.7,1000,exp,9,5,113,8,706.4505193999503,,706.4362053999794,706.4505193999503,707.4505196999526,707.4505196999526,707.4505196999526,709.3184984999825,space,1.863570699992124,None,709.3193432999542,710.0334057666516,710.3464555999963,710.3321455999976,710.3322591999895,710.3464555999963,710.3464555999963,710.3464555999963,715.3666601000004,234,1,[5.032050100038759],[5.032058600045275],1,001,2024-11-12_13h08.55.177,Intentional Binding Task,2024.1.5,None,2024-11-12 13h09.06.533314 +0530,
0.4,1000,exp,9,6,114,4,715.3820341999526,,715.3674046999658,715.3820341999526,716.3816556999809,716.3816556999809,716.3816556999809,716.8998110999819,space,0.5023634000099264,None,716.9004698999925,717.3150208666377,717.6255857999786,717.6111298999749,717.6111963999574,717.6255857999786,717.6255857999786,717.6255857999786,721.4655341999605,567,1,[3.852129500010051],[3.8521379999583587],1,001,2024-11-12_13h08.55.177,Intentional Binding Task,2024.1.5,None,2024-11-12 13h09.06.533314 +0530,
0.4,1000,exp,9,7,115,10,721.4806883999845,,721.4663901999593,721.4806883999845,722.4808849999681,722.4808849999681,722.4808849999681,725.1830583999981,space,2.6982763999840245,None,725.1839700999553,725.5963601666192,,725.8766003999626,725.8766558999778,725.890504299954,725.890504299954,725.890504299954,728.8803771999665,124 ,1,[3.001304400037043],[3.0013120000367053],1,001,2024-11-12_13h08.55.177,Intentional Binding Task,2024.1.5,None,2024-11-12 13h09.06.533314 +0530,
0.1,400,unexp,9,8,116,0,728.8958693000022,,728.8813630999648,728.8958693000022,729.8957907999866,729.8957907999866,729.8957907999866,730.915385100001,space,1.0060224999906495,None,730.9162153999787,731.0288911666178,731.3384416999761,731.3242137999623,731.3242768999771,731.3384416999761,731.3384416999761,731.3384416999761,734.2800382999703,976,1,[2.95300199999474],[2.953015500039328],1,001,2024-11-12_13h08.55.177,Intentional Binding Task,2024.1.5,None,2024-11-12 13h09.06.533314 +0530,
0.1,1000,exp,9,9,117,6,734.2954743999871,,734.2811673999531,734.2954743999871,735.2943123999867,735.2943123999867,735.2943123999867,735.9122052000021,space,0.601382500026375,None,735.9129590999801,736.0276843666254,736.3349637999781,736.3206842999789,736.320730699983,736.3349637999781,736.3349637999781,736.3349637999781,739.5782467999961,267,1,[3.2553341000457294],[3.255344500008505],1,001,2024-11-12_13h08.55.177,Intentional Binding Task,2024.1.5,None,2024-11-12 13h09.06.533314 +0530,
0.1,1000,exp,9,10,118,3,739.5935408999794,,739.5789727999945,739.5935408999794,740.5936564999865,740.5936564999865,740.5936564999865,741.2959789999877,space,0.690112299984321,None,741.296710399969,741.4100243666364,741.7245724999812,741.711052300001,741.7111130999983,741.7245724999812,741.7245724999812,741.7245724999812,745.1279056000058,943,1,[3.4144932000199333],[3.414505399996415],1,001,2024-11-12_13h08.55.177,Intentional Binding Task,2024.1.5,None,2024-11-12 13h09.06.533314 +0530,
0.7,1000,exp,9,11,119,11,745.142410099972,,745.1287605999969,745.142410099972,746.1423084999551,746.1423084999551,746.1423084999551,746.8114687000052,space,0.6621010000235401,None,746.8123401000048,747.525444266623,747.8362392999697,747.8216353000025,747.8217004999751,747.8362392999697,747.8362392999697,747.8362392999697,750.8090393999591,286,1,[2.984094300016295],[2.984102600021288],1,001,2024-11-12_13h08.55.177,Intentional Binding Task,2024.1.5,None,2024-11-12 13h09.06.533314 +0530,
0.7,1000,exp,10,0,120,11,750.8243652999518,,750.8097196999588,750.8243652999518,751.8245247000013,751.8245247000013,751.8245247000013,753.1088234999916,space,1.270209199981764,None,753.1096800999949,753.8242175666421,754.1345312999911,754.1206688999664,754.1207100999891,754.1345312999911,754.1345312999911,754.1345312999911,756.7918771999539,546,1,[2.6681228000088595],[2.6681484000291675],1,001,2024-11-12_13h08.55.177,Intentional Binding Task,2024.1.5,None,2024-11-12 13h09.06.533314 +0530,
0.4,1000,exp,10,1,121,10,756.8070006999769,,756.7930278999847,756.8070006999769,757.8067166999681,757.8067166999681,757.8067166999681,759.2255410999642,space,1.4142947000218555,None,759.226302199997,759.6393584666696,759.9539231999661,759.9409509999678,759.9410017000046,759.9539231999661,759.9539231999661,759.9539231999661,764.2396885000053,295,1,[4.296646400005557],[4.296655900019687],1,001,2024-11-12_13h08.55.177,Intentional Binding Task,2024.1.5,None,2024-11-12 13h09.06.533314 +0530,
0.1,1000,exp,10,2,122,9,764.2549147999962,,764.2405581999919,764.2549147999962,765.2549991999986,765.2549991999986,765.2549991999986,765.9920367999584,space,0.7323883000062779,None,765.9930774999666,766.1050696666391,766.4163683999795,766.401447399985,766.401511300006,766.4163683999795,766.4163683999795,766.4163683999795,769.6216835999512,504,1,[3.217706600029487],[3.2177159000420943],1,001,2024-11-12_13h08.55.177,Intentional Binding Task,2024.1.5,None,2024-11-12 13h09.06.533314 +0530,
0.7,400,unexp,10,3,123,2,769.6369597999728,,769.6223063999787,769.6369597999728,770.6371732999687,770.6371732999687,770.6371732999687,771.6732071999577,space,1.0327769999857992,None,771.6739445999847,772.3867701666352,772.6937137999921,772.6811490999535,772.6811961999629,772.6937137999921,772.6937137999921,772.6937137999921,779.2360364999622,104,1,[6.5530844000168145],[6.553091800014954],1,001,2024-11-12_13h08.55.177,Intentional Binding Task,2024.1.5,None,2024-11-12 13h09.06.533314 +0530,
0.1,1000,exp,10,4,124,3,779.2518815999501,,779.2367672999972,779.2518815999501,780.2516153999604,780.2516153999604,780.2516153999604,780.8854510999518,space,0.62450059998082,None,780.885767699976,780.9851004666455,,781.2607980999746,781.260859299975,781.2751594999572,781.2751594999572,781.2751594999572,784.7020657999674,985,1,[3.439199899963569],[3.4392083999700844],1,001,2024-11-12_13h08.55.177,Intentional Binding Task,2024.1.5,None,2024-11-12 13h09.06.533314 +0530,
0.4,400,unexp,10,5,125,1,784.7171211999957,,784.7028961000033,784.7171211999957,785.7173955999897,785.7173955999897,785.7173955999897,786.386649299995,space,0.6615282999700867,None,786.3876811999944,786.8004282666409,787.1166314999573,787.101591499988,787.1016586999758,787.1166314999573,787.1166314999573,787.1166314999573,788.6516581999604,845,1,[1.5470848999684677],[1.547098199953325],1,001,2024-11-12_13h08.55.177,Intentional Binding Task,2024.1.5,None,2024-11-12 13h09.06.533314 +0530,
0.4,1000,exp,10,6,126,7,788.6666764999973,,788.652813099965,788.6666764999973,789.6664477000013,789.6664477000013,789.6664477000013,790.3698046999634,space,0.7010400000144728,None,790.370551400003,790.7825855666345,791.0952403999981,791.0811668999959,791.0812236999627,791.0952403999981,791.0952403999981,791.0952403999981,792.6175967999734,956,1,[1.5339233999839053],[1.533934400009457],1,001,2024-11-12_13h08.55.177,Intentional Binding Task,2024.1.5,None,2024-11-12 13h09.06.533314 +0530,
0.7,1000,exp,10,7,127,5,792.6324585999828,,792.6187078999938,792.6324585999828,793.6321679999819,793.6321679999819,793.6321679999819,797.1346686999896,space,3.4884135000174865,None,797.1356272999546,797.8480634666669,798.1641170000075,798.1509024999687,798.1509515999933,798.1641170000075,798.1641170000075,798.1641170000075,800.4653617999866,967,1,[2.312270800000988],[2.3122822000295855],1,001,2024-11-12_13h08.55.177,Intentional Binding Task,2024.1.5,None,2024-11-12 13h09.06.533314 +0530,
0.1,1000,exp,10,8,128,6,800.4805954999756,,800.4661680999561,800.4805954999756,801.4804792999639,801.4804792999639,801.4804792999639,802.6334873999585,space,1.1505427999654785,None,802.6341886000009,802.7469085666273,803.0538669999805,803.0410672999569,803.0411130999564,803.0538669999805,803.0538669999805,803.0538669999805,805.4818839000072,847,1,[2.438405100023374],[2.4384226000402123],1,001,2024-11-12_13h08.55.177,Intentional Binding Task,2024.1.5,None,2024-11-12 13h09.06.533314 +0530,
0.1,400,unexp,10,9,129,0,805.4965121999849,,805.4831432999927,805.4965121999849,806.4961076999898,806.4961076999898,806.4961076999898,807.9136175999884,space,1.4010968999937177,None,807.9142515999847,808.0290501666643,,808.3034563999972,808.3034752999665,808.3126958999783,808.3126958999783,808.3126958999783,811.5627930999617,945,1,[3.2581512999604456],[3.25816039997153],1,001,2024-11-12_13h08.55.177,Intentional Binding Task,2024.1.5,None,2024-11-12 13h09.06.533314 +0530,
0.7,1000,exp,10,10,130,8,811.5786167999613,,811.5636135999812,811.5786167999613,812.5781784999999,812.5781784999999,812.5781784999999,813.0973929999745,space,0.504802200011909,None,813.0982153000077,813.8112930666578,814.1257074999739,814.1119404999772,814.111998999957,814.1257074999739,814.1257074999739,814.1257074999739,817.1631749999942,205,1,[3.0485249999910593],[3.048541500000283],1,001,2024-11-12_13h08.55.177,Intentional Binding Task,2024.1.5,None,2024-11-12 13h09.06.533314 +0530,
0.4,1000,exp,10,11,131,4,817.1770498999977,,817.1641858000075,817.1770498999977,818.1769783999771,818.1769783999771,818.1769783999771,818.7452542999526,space,0.5624930000049062,None,818.7458580999519,819.1601499666615,819.4601065999595,819.4444577999529,819.4444922999828,819.4601065999595,819.4601065999595,819.4601065999595,821.3107531999703,895,1,[1.864688900008332],[1.8646978000178933],1,001,2024-11-12_13h08.55.177,Intentional Binding Task,2024.1.5,None,2024-11-12 13h09.06.533314 +0530,
0.4,1000,exp,11,0,132,10,821.3261215999955,,821.3113944999641,821.3261215999955,822.325790199975,822.325790199975,822.325790199975,823.0957921999507,space,0.7563834000029601,None,823.0966795999557,823.5090402666285,823.8261913000024,823.8117338999873,823.8118547999766,823.8261913000024,823.8261913000024,823.8261913000024,826.6428845999762,894,1,[2.8286792000290006],[2.828688600042369],1,001,2024-11-12_13h08.55.177,Intentional Binding Task,2024.1.5,None,2024-11-12 13h09.06.533314 +0530,
0.4,1000,exp,11,1,133,4,826.6583114999812,,826.6436126999906,826.6583114999812,827.6587009999785,827.6587009999785,827.6587009999785,828.7778201999608,space,1.1059731999994256,None,828.7786957999924,829.1912279666324,829.5064146999503,829.4915647999733,829.4916211999953,829.5064146999503,829.5064146999503,829.5064146999503,831.3753799999831,904,1,[1.8812355999834836],[1.881247400015127],1,001,2024-11-12_13h08.55.177,Intentional Binding Task,2024.1.5,None,2024-11-12 13h09.06.533314 +0530,
0.1,1000,exp,11,2,134,9,831.3911787999677,,831.376137299987,831.3911787999677,832.3907094000024,832.3907094000024,832.3907094000024,833.2929267999716,space,0.8964433000073768,None,833.2936147999717,833.4072412666321,833.716617500002,833.7013707999722,833.7014280000003,833.716617500002,833.716617500002,833.716617500002,836.7236969000078,105,1,[3.020256799994968],[3.020264999999199],1,001,2024-11-12_13h08.55.177,Intentional Binding Task,2024.1.5,None,2024-11-12 13h09.06.533314 +0530,
0.1,1000,exp,11,3,135,3,836.7394218999543,,836.7244870999712,836.7394218999543,837.7397100999951,837.7397100999951,837.7397100999951,839.1090841999976,space,1.3542505000368692,None,839.1099410000024,839.2228352666173,839.5362147999695,839.5213053000043,839.5213572999928,839.5362147999695,839.5362147999695,839.5362147999695,841.6232471999829,945,1,[2.100058900017757],[2.10006860003341],1,001,2024-11-12_13h08.55.177,Intentional Binding Task,2024.1.5,None,2024-11-12 13h09.06.533314 +0530,
0.4,400,unexp,11,4,136,1,841.6383993999916,,841.6238868999644,841.6383993999916,842.6385855999542,842.6385855999542,842.6385855999542,843.4241084999521,space,0.7714194000000134,None,843.4249432999641,843.8383121666304,844.1536763999611,844.1433282999787,844.1433550000074,844.1536763999611,844.1536763999611,844.1536763999611,846.1720309999655,845,1,[2.027370100026019],[2.0273784999735653],1,001,2024-11-12_13h08.55.177,Intentional Binding Task,2024.1.5,None,2024-11-12 13h09.06.533314 +0530,
0.7,1000,exp,11,5,137,8,846.187482999987,,846.1728356999811,846.187482999987,847.1875257999636,847.1875257999636,847.1875257999636,849.1733550999779,space,1.968936700024642,None,849.1741946999682,849.886856066649,850.1955862999894,850.1812343999627,850.1812977999798,850.1955862999894,850.1955862999894,850.1955862999894,852.4871344999992,956,1,[2.303728000028059],[2.303736000030767],1,001,2024-11-12_13h08.55.177,Intentional Binding Task,2024.1.5,None,2024-11-12 13h09.06.533314 +0530,
0.7,400,unexp,11,6,138,2,852.5028777999687,,852.4878995000036,852.5028777999687,853.5030080999713,853.5030080999713,853.5030080999713,855.3888269999879,space,1.876851600012742,None,855.3898158999509,856.1017583666292,856.4023959999904,856.3874274999835,856.3874866999686,856.4023959999904,856.4023959999904,856.4023959999904,858.5031073999708,856,1,[2.1135960000101477],[2.1136026000021957],1,001,2024-11-12_13h08.55.177,Intentional Binding Task,2024.1.5,None,2024-11-12 13h09.06.533314 +0530,
0.7,1000,exp,11,7,139,5,858.5181937000016,,858.5037763,858.5181937000016,859.5177637999877,859.5177637999877,859.5177637999877,860.4197828999604,space,0.8956461999914609,None,860.4204525999958,861.134537866634,861.4462829999975,861.4311858000001,861.4312543999986,861.4462829999975,861.4462829999975,861.4462829999975,865.5011217999854,684,1,[4.067031199985649],[4.067039699992165],1,001,2024-11-12_13h08.55.177,Intentional Binding Task,2024.1.5,None,2024-11-12 13h09.06.533314 +0530,
0.7,1000,exp,11,8,140,11,865.516589100007,,865.5018418999971,865.516589100007,866.5167643000023,866.5167643000023,866.5167643000023,867.0687811999815,space,0.5483658000011928,None,867.0694764999789,867.7832503666325,868.0962437999551,868.081615299976,868.0816939999931,868.0962437999551,868.0962437999551,868.0962437999551,870.7008097000071,493,1,[2.6159236999810673],[2.6159404999925755],1,001,2024-11-12_13h08.55.177,Intentional Binding Task,2024.1.5,None,2024-11-12 13h09.06.533314 +0530,
0.1,400,unexp,11,9,141,0,870.7158279999858,,870.7024317999603,870.7158279999858,871.7157443999895,871.7157443999895,871.7157443999895,872.3680933999713,space,0.6483108000247739,None,872.3688365999842,872.4820688666698,872.7951748999767,872.7812555999844,872.781346099975,872.7951748999767,872.7951748999767,872.7951748999767,875.4353809999884,205,1,[2.651450000004843],[2.6514624999836087],1,001,2024-11-12_13h08.55.177,Intentional Binding Task,2024.1.5,None,2024-11-12 13h09.06.533314 +0530,
0.4,1000,exp,11,10,142,7,875.4480544999824,,875.436418999976,875.4480544999824,876.4481269999524,876.4481269999524,876.4481269999524,877.3494521999964,space,0.8925953999860212,None,877.3502913999837,877.7643916666314,878.074319599953,878.0606710999855,878.0607158999774,878.074319599953,878.074319599953,878.074319599953,879.7816739999689,549,1,[1.7186977000092156],[1.71870750002563],1,001,2024-11-12_13h08.55.177,Intentional Binding Task,2024.1.5,None,2024-11-12 13h09.06.533314 +0530,
0.1,1000,exp,11,11,143,6,879.7971217999584,,879.7823551999754,879.7971217999584,880.7971456999658,880.7971456999658,880.7971456999658,881.2497474999982,space,0.4437444999930449,None,881.2505528999609,881.3636910666285,881.6766886999831,881.6620958999847,881.6622444999521,881.6766886999831,881.6766886999831,881.6766886999831,883.6312516999897,685,1,[1.9658732000389136],[1.9658852000138722],1,001,2024-11-12_13h08.55.177,Intentional Binding Task,2024.1.5,None,2024-11-12 13h09.06.533314 +0530,
0.1,1000,exp,12,0,144,6,883.6465679999674,,883.6323546000058,883.6465679999674,884.6463253999827,884.6463253999827,884.6463253999827,885.1992580000078,space,0.5484845000319183,None,885.2002792999847,885.3128804666378,885.6251988000004,885.6112567999517,885.6113245000015,885.6251988000004,885.6251988000004,885.6251988000004,889.6796742999577,102,1,[4.065341399982572],[4.065349299984518],1,001,2024-11-12_13h08.55.177,Intentional Binding Task,2024.1.5,None,2024-11-12 13h09.06.533314 +0530,
0.7,1000,exp,12,1,145,5,889.694837899995,,889.6805699999677,889.694837899995,890.6948940999573,890.6948940999573,890.6948940999573,891.114007199998,space,0.4167421999736689,None,891.1149218999781,891.8279401666407,892.136925800005,892.1224217999843,892.1224771999987,892.136925800005,892.136925800005,892.136925800005,899.6940681999549,905,1,[7.569399299973156],[7.569412699958775],1,001,2024-11-12_13h08.55.177,Intentional Binding Task,2024.1.5,None,2024-11-12 13h09.06.533314 +0530,
0.1,400,unexp,12,2,146,0,899.7097536999499,,899.6947227999917,899.7097536999499,900.7084400999593,900.7084400999593,900.7253135999781,901.2795691000065,space,0.5651958999806084,None,901.2804787000059,901.3926708666297,901.7056730999611,901.6919480999932,901.6920130999642,901.7056730999611,901.7056730999611,901.7056730999611,904.0106268999516,598,1,[2.3159219999797642],[2.3159340999554843],1,001,2024-11-12_13h08.55.177,Intentional Binding Task,2024.1.5,None,2024-11-12 13h09.06.533314 +0530,
0.1,1000,exp,12,3,147,9,904.0253760999767,,904.0116614999715,904.0253760999767,905.0253243999905,905.0253243999905,905.0253243999905,906.7442143999506,space,1.7137148999609053,None,906.744905599975,906.8583330666336,907.1676901999745,907.1511065999512,907.1511591000017,907.1676901999745,907.1676901999745,907.1676901999745,911.5916948999511,485,1,[4.438374000019394],[4.4383843000396155],1,001,2024-11-12_13h08.55.177,Intentional Binding Task,2024.1.5,None,2024-11-12 13h09.06.533314 +0530,
0.4,1000,exp,12,4,148,10,911.607106099953,,911.5925310999737,911.607106099953,912.6066016999539,912.6066016999539,912.6066016999539,913.4091148999869,space,0.7986890000174753,None,913.4098246999783,913.8235700666594,914.1360639999621,914.1222493999521,914.1223001999897,914.1360639999621,914.1360639999621,914.1360639999621,915.75797039998,903,1,[1.6334242000011727],[1.6334358000312932],1,001,2024-11-12_13h08.55.177,Intentional Binding Task,2024.1.5,None,2024-11-12 13h09.06.533314 +0530,
0.4,1000,exp,12,5,149,7,915.7727725000004,,915.7590584999998,915.7727725000004,916.772727500007,916.772727500007,916.772727500007,917.3082988999668,space,0.5217643999494612,None,917.3091123999911,917.7224311666253,918.0362725000014,918.0223088999628,918.0223683999502,918.0362725000014,918.0362725000014,918.0362725000014,919.6900753999944,204,1,[1.6652585999690928],[1.665267699980177],1,001,2024-11-12_13h08.55.177,Intentional Binding Task,2024.1.5,None,2024-11-12 13h09.06.533314 +0530,
0.4,400,unexp,12,6,150,1,919.7054317999864,,919.6906666999566,919.7054317999864,920.7053263999987,920.7053263999987,920.7053263999987,921.7227712000022,space,1.0089509999961592,None,921.7231009999523,922.1383312666478,922.4444194999523,922.4331215999555,922.4331462999689,922.4444194999523,922.4444194999523,922.4444194999523,925.1720264999894,967,1,[2.737470599997323],[2.7374798000091687],1,001,2024-11-12_13h08.55.177,Intentional Binding Task,2024.1.5,None,2024-11-12 13h09.06.533314 +0530,
0.7,1000,exp,12,7,151,8,925.1874669999816,,925.1728664999828,925.1874669999816,926.1880349999992,926.1880349999992,926.1880349999992,926.7393153999583,space,0.5419587999931537,None,926.7399107999518,927.4538882666423,927.7659627999528,927.7519841999747,927.7520438999636,927.7659627999528,927.7659627999528,927.7659627999528,930.738460899971,295,1,[2.983725600002799],[2.983739199989941],1,001,2024-11-12_13h08.55.177,Intentional Binding Task,2024.1.5,None,2024-11-12 13h09.06.533314 +0530,
0.4,1000,exp,12,8,152,4,930.7530660000048,,930.739632199984,930.7530660000048,931.752786499972,931.752786499972,931.752786499972,932.4553811999504,space,0.6850688999984413,None,932.4565844999743,932.8686292666282,933.1854335999815,933.1713483000058,933.1714006999973,933.1854335999815,933.1854335999815,933.1854335999815,935.8530257999664,107,1,[2.679543099948205],[2.6795517999562435],1,001,2024-11-12_13h08.55.177,Intentional Binding Task,2024.1.5,None,2024-11-12 13h09.06.533314 +0530,
0.7,400,unexp,12,9,153,2,935.8683888999512,,935.8537319999887,935.8683888999512,936.8683724000002,936.8683724000002,936.8683724000002,937.3710393999936,space,0.49205459997756407,None,937.3718457999639,938.0849394666186,938.3892040000064,938.3801347999834,938.3801525000017,938.3892040000064,938.3892040000064,938.3892040000064,941.0184531999985,584,1,[2.6370750999776646],[2.63708359998418],1,001,2024-11-12_13h08.55.177,Intentional Binding Task,2024.1.5,None,2024-11-12 13h09.06.533314 +0530,
0.1,1000,exp,12,10,154,3,941.0340871999506,,941.0190471999813,941.0340871999506,942.033826800005,942.033826800005,942.033826800005,952.1351559999748,space,10.086914899991825,None,952.1360500999726,952.2485017666515,952.5548584999633,952.5408568999846,952.5409104999853,952.5548584999633,952.5548584999633,952.5548584999633,955.5484722999972,294,1,[3.005642000003718],[3.0056486999965273],1,001,2024-11-12_13h08.55.177,Intentional Binding Task,2024.1.5,None,2024-11-12 13h09.06.533314 +0530,
0.7,1000,exp,12,11,155,11,955.5641611999599,,955.5490867999615,955.5641611999599,956.564149199985,956.564149199985,956.564149199985,957.200450400007,space,0.6275436000432819,None,957.2012860999675,957.916406666631,958.2331762999529,958.2169566999655,958.2170257999678,958.2331762999529,958.2331762999529,958.2331762999529,960.2307905000052,743,1,[2.0113167999661528],[2.011324299965054],1,001,2024-11-12_13h08.55.177,Intentional Binding Task,2024.1.5,None,2024-11-12 13h09.06.533314 +0530,
0.1,1000,exp,13,0,156,9,960.2465002999525,,960.2313487000065,960.2465002999525,961.2467054000008,961.2467054000008,961.2467054000008,964.4815446999855,space,3.2184703000239097,None,964.4823728000047,964.596104966655,964.9055506999721,964.8911399999633,964.8912079999573,964.9055506999721,964.9055506999721,964.9055506999721,970.7960302999709,643,1,[5.902552000014111],[5.902560300019104],1,001,2024-11-12_13h08.55.177,Intentional Binding Task,2024.1.5,None,2024-11-12 13h09.06.533314 +0530,
0.7,400,unexp,13,1,157,2,970.8111372999847,,970.7966928999522,970.8111372999847,971.811278899957,971.811278899957,971.811278899957,972.3630674000015,space,0.5442180000245571,None,972.3638215999817,973.077659066654,973.3863322999678,973.3711185999564,973.3711898999754,973.3863322999678,973.3863322999678,973.3863322999678,975.4782292000018,846,1,[2.1042870999663137],[2.1042960999766365],1,001,2024-11-12_13h08.55.177,Intentional Binding Task,2024.1.5,None,2024-11-12 13h09.06.533314 +0530,
0.4,400,unexp,13,2,158,1,975.4935110999504,,975.4791426999727,975.4935110999504,976.4934835999738,976.4934835999738,976.4934835999738,977.028434399981,space,0.5225426999968477,None,977.0291490999516,977.4430759666177,977.7545109000057,977.741020699963,977.741080799955,977.7545109000057,977.7545109000057,977.7545109000057,980.2438604999916,329,1,[2.5000612000003457],[2.5000698999501765],1,001,2024-11-12_13h08.55.177,Intentional Binding Task,2024.1.5,None,2024-11-12 13h09.06.533314 +0530,
0.1,1000,exp,13,3,159,6,980.2588417999796,,980.2445236999774,980.2588417999796,981.2590797999874,981.2590797999874,981.2590797999874,981.9438627999625,space,0.6785325999953784,None,981.9446569999564,982.0588318666598,982.3734507999616,982.3610012999852,982.3610520999646,982.3734507999616,982.3734507999616,982.3734507999616,984.7103996999795,654,1,[2.347011400037445],[2.3470258000306785],1,001,2024-11-12_13h08.55.177,Intentional Binding Task,2024.1.5,None,2024-11-12 13h09.06.533314 +0530,
0.4,1000,exp,13,4,160,10,984.7250608999748,,984.7119150999933,984.7250608999748,985.7247531999601,985.7247531999601,985.7247531999601,986.2277611999889,space,0.4981747000128962,None,986.2286657000077,986.6413474666226,986.9780920000048,986.9682156000054,986.9682420999743,986.9780920000048,986.9780920000048,986.9780920000048,989.0241456999793,867,1,[2.0543440000037663],[2.054353099956643],1,001,2024-11-12_13h08.55.177,Intentional Binding Task,2024.1.5,None,2024-11-12 13h09.06.533314 +0530,
0.7,1000,exp,13,5,161,5,989.0403097999515,,989.0252958000056,989.0403097999515,990.040330799995,990.040330799995,990.040330799995,990.525486700004,space,0.4682092999573797,None,990.5260751000023,991.2403908666495,991.5549627,991.5409757999587,991.5411730000051,991.5549627,991.5549627,991.5549627,994.1246916999808,509,1,[2.5808993999962695],[2.5809116999735124],1,001,2024-11-12_13h08.55.177,Intentional Binding Task,2024.1.5,None,2024-11-12 13h09.06.533314 +0530,
0.1,400,unexp,13,6,162,0,994.1399399999646,,994.1257146999706,994.1399399999646,995.1395137999789,995.1395137999789,995.1395137999789,997.4244998999638,space,2.2679775000433438,None,997.425332499959,997.5389078666378,997.8451005999814,997.8310644999729,997.8311081999564,997.8451005999814,997.8451005999814,997.8451005999814,1000.890106100007,285,1,[3.0563974999822676],[3.0564117999747396],1,001,2024-11-12_13h08.55.177,Intentional Binding Task,2024.1.5,None,2024-11-12 13h09.06.533314 +0530,
0.7,1000,exp,13,7,163,11,1000.9050030999933,,1000.891249599983,1000.9050030999933,1001.9046171999653,1001.9046171999653,1001.9046171999653,1002.9217451000004,space,1.0050711000221781,None,1002.9220426999964,1003.6376599666585,1003.9447555999504,1003.9312363999779,1003.93129519996,1003.9447555999504,1003.9447555999504,1003.9447555999504,1006.8726365999901,649,1,[2.938636300037615],[2.9386523999855854],1,001,2024-11-12_13h08.55.177,Intentional Binding Task,2024.1.5,None,2024-11-12 13h09.06.533314 +0530,
0.1,1000,exp,13,8,164,3,1006.8867989999708,,1006.8739388999529,1006.8867989999708,1007.8866553999833,1007.8866553999833,1007.8866553999833,1010.138644199993,space,2.24834579997696,None,1010.1393341999501,1010.2528149666653,1010.5663558999659,1010.5522176999948,1010.5522741999594,1010.5663558999659,1010.5663558999659,1010.5663558999659,1016.3707512999536,745,1,[5.8156405000481755],[5.815658400009852],1,001,2024-11-12_13h08.55.177,Intentional Binding Task,2024.1.5,None,2024-11-12 13h09.06.533314 +0530,
0.7,1000,exp,13,9,165,8,1016.3848281999817,,1016.3719573999988,1016.3848281999817,1017.3847857000073,1017.3847857000073,1017.3847857000073,1017.8870339999557,space,0.4959534999798052,None,1017.8877403999795,1018.601223766633,1018.9150825999677,1018.9012855999754,1018.9013386999723,1018.9150825999677,1018.9150825999677,1018.9150825999677,1020.6851053999853,785,1,[1.7811321999761276],[1.781140899984166],1,001,2024-11-12_13h08.55.177,Intentional Binding Task,2024.1.5,None,2024-11-12 13h09.06.533314 +0530,
0.4,1000,exp,13,10,166,4,1020.7004219999653,,1020.6860450999811,1020.7004219999653,1021.7005373999709,1021.7005373999709,1021.7005373999709,1022.3026867999579,space,0.5970292999991216,None,1022.3034828999662,1022.7169590666347,1023.0254234999884,1023.010945099988,1023.011009699956,1023.0254234999884,1023.0254234999884,1023.0254234999884,1025.1171961000073,946,1,[2.1033804999897256],[2.1033881999901496],1,001,2024-11-12_13h08.55.177,Intentional Binding Task,2024.1.5,None,2024-11-12 13h09.06.533314 +0530,
0.4,1000,exp,13,11,167,7,1025.1327698999667,,1025.117797999992,1025.1327698999667,1026.1330280999537,1026.1330280999537,1026.1330280999537,1027.401593699993,space,1.2505951000493951,None,1027.4023950999836,1027.815865066663,1028.125471199979,1028.1116456000018,1028.1117022999679,1028.125471199979,1028.125471199979,1028.125471199979,1030.750766699959,204,1,[2.63607010000851],[2.6360865000169724],1,001,2024-11-12_13h08.55.177,Intentional Binding Task,2024.1.5,None,2024-11-12 13h09.06.533314 +0530,
0.4,1000,exp,14,0,168,7,1030.765059700003,,1030.751570399967,1030.765059700003,1031.7651078999625,1031.7651078999625,1031.7651078999625,1035.6498858999694,space,3.8740752000012435,None,1035.6507475999533,1036.0640693666685,1036.3740282999934,1036.3608830999583,1036.360939199978,1036.3740282999934,1036.3740282999934,1036.3740282999934,1038.114926499955,685,1,[1.751725499983877],[1.7517342999926768],1,001,2024-11-12_13h08.55.177,Intentional Binding Task,2024.1.5,None,2024-11-12 13h09.06.533314 +0530,
0.7,400,unexp,14,1,169,2,1038.1300854999572,,1038.1157954999944,1038.1300854999572,1039.1301952999784,1039.1301952999784,1039.1301952999784,1039.8321313000051,space,0.6848390999948606,None,1039.8327890000073,1040.5464340666697,1040.8571372999577,1040.8419590999838,1040.8420292999945,1040.8571372999577,1040.8571372999577,1040.8571372999577,1044.2305825999938,506,1,[3.3857652999577112],[3.3857727999566123],1,001,2024-11-12_13h08.55.177,Intentional Binding Task,2024.1.5,None,2024-11-12 13h09.06.533314 +0530,
0.1,1000,exp,14,2,170,6,1044.245434499986,,1044.2311420000042,1044.245434499986,1045.2454770999611,1045.2454770999611,1045.2454770999611,1045.8147561000078,space,0.5603789999731816,None,1045.8156258999952,1045.9287134666267,1046.2375566999544,1046.2240160999936,1046.2240716999513,1046.2375566999544,1046.2375566999544,1046.2375566999544,1048.7124841999612,695,1,[2.4864741999772377],[2.4864815999753773],1,001,2024-11-12_13h08.55.177,Intentional Binding Task,2024.1.5,None,2024-11-12 13h09.06.533314 +0530,
0.4,1000,exp,14,3,171,4,1048.7276419999544,,1048.7131461999961,1048.7276419999544,1049.7274524999666,1049.7274524999666,1049.7274524999666,1050.4132505999878,space,0.6775907999835908,None,1050.414241499966,1050.8271990666437,1051.13452219998,1051.1206987999612,1051.1207441999577,1051.13452219998,1051.13452219998,1051.13452219998,1052.7118034999585,204,1,[1.589148600003682],[1.5891566000063904],1,001,2024-11-12_13h08.55.177,Intentional Binding Task,2024.1.5,None,2024-11-12 13h09.06.533314 +0530,
0.4,1000,exp,14,4,172,10,1052.7268224,,1052.7127114000032,1052.7268224,1053.7270219000056,1053.7270219000056,1053.7270219000056,1054.2625664999941,space,0.5248314999626018,None,1054.2633524999837,1054.6769859666276,1054.985262000002,1054.9708974999958,1054.9709524000064,1054.985262000002,1054.985262000002,1054.985262000002,1057.3275279999943,103,1,[2.354344600054901],[2.3543548000161536],1,001,2024-11-12_13h08.55.177,Intentional Binding Task,2024.1.5,None,2024-11-12 13h09.06.533314 +0530,
0.1,400,unexp,14,5,173,0,1057.3425612999708,,1057.328370000003,1057.3425612999708,1058.3424918999663,1058.3424918999663,1058.3424918999663,1059.8445044999826,space,1.4922615000396036,None,1059.8451428999542,1059.958833966641,1060.2748415999813,1060.2613393999636,1060.261389899999,1060.2748415999813,1060.2748415999813,1060.2748415999813,1063.1761178000015,585,1,[2.912848700012546],[2.9128583999699913],1,001,2024-11-12_13h08.55.177,Intentional Binding Task,2024.1.5,None,2024-11-12 13h09.06.533314 +0530,
0.4,400,unexp,14,6,174,1,1063.1912221999955,,1063.176735999994,1063.1912221999955,1064.1913982999977,1064.1913982999977,1064.1913982999977,1066.093498400005,space,1.8902415999909863,None,1066.0942549000029,1066.5073248666633,,1066.7915587999742,1066.791624699952,1066.8065739999874,1066.8065739999874,1066.8065739999874,1068.9911592999706,305,1,[2.197165900026448],[2.197174500033725],1,001,2024-11-12_13h08.55.177,Intentional Binding Task,2024.1.5,None,2024-11-12 13h09.06.533314 +0530,
0.7,1000,exp,14,7,175,11,1069.0067548999796,,1068.991935099999,1069.0067548999796,1070.0070485000033,1070.0070485000033,1070.0070485000033,1070.8430049999733,space,0.8211583000374958,None,1070.8439914999763,1071.5563974666331,1071.865604999999,1071.850949499989,1071.851011199993,1071.865604999999,1071.865604999999,1071.865604999999,1073.5249261999852,856,1,[1.6714108000160195],[1.671423899999354],1,001,2024-11-12_13h08.55.177,Intentional Binding Task,2024.1.5,None,2024-11-12 13h09.06.533314 +0530,
0.7,1000,exp,14,8,176,8,1073.5392529999954,,1073.5256079999963,1073.5392529999954,1074.539242799976,1074.539242799976,1074.539242799976,1075.1242394999717,space,0.5776877999887802,None,1075.1249296999886,1075.838878566636,1076.1546994999517,1076.1415518999565,1076.141596500005,1076.1546994999517,1076.1546994999517,1076.1546994999517,1078.873343699961,743,1,[2.729361899953801],[2.7293798999744467],1,001,2024-11-12_13h08.55.177,Intentional Binding Task,2024.1.5,None,2024-11-12 13h09.06.533314 +0530,
0.1,1000,exp,14,9,177,9,1078.8880888999556,,1078.8744352000067,1078.8880888999556,1079.888046099979,1079.888046099979,1079.888046099979,1080.9227860999526,space,1.0194457999896258,None,1080.9235028999974,1081.037972666618,1081.3433581999852,1081.3306613999885,1081.3307078999933,1081.3433581999852,1081.3433581999852,1081.3433581999852,1085.421154599986,721 ,1,[4.088637300010305],[4.088644900009967],1,001,2024-11-12_13h08.55.177,Intentional Binding Task,2024.1.5,None,2024-11-12 13h09.06.533314 +0530,
0.1,1000,exp,14,10,178,3,1085.4364606000017,,1085.4217831999995,1085.4364606000017,1086.436610499979,1086.436610499979,1086.436610499979,1088.7057741999743,space,2.2653004999738187,None,1088.70651249995,1088.8195098666513,1089.1369436999667,1089.1213221999933,1089.1213833999936,1089.1369436999667,1089.1369436999667,1089.1369436999667,1099.2854789999546,758,1,[10.160223499988206],[10.160235599963926],1,001,2024-11-12_13h08.55.177,Intentional Binding Task,2024.1.5,None,2024-11-12 13h09.06.533314 +0530,
0.7,1000,exp,14,11,179,5,1099.3006585999974,,1099.286300799984,1099.3006585999974,1100.300413399993,1100.300413399993,1100.300413399993,1102.734782799962,space,2.4273022999987006,None,1102.7354306000052,1103.4497468666561,1103.7657618999947,1103.7519472999847,1103.7520077999798,1103.7657618999947,1103.7657618999947,1103.7657618999947,1105.8168352000066,957,1,[2.062757700041402],[2.0627648000372574],1,001,2024-11-12_13h08.55.177,Intentional Binding Task,2024.1.5,None,2024-11-12 13h09.06.533314 +0530,
0.4,1000,exp,15,0,180,7,1105.8321609999985,,1105.817461300001,1105.8321609999985,1106.8322359999875,1106.8322359999875,1106.8322359999875,1107.0515113999718,space,0.2122018999652937,None,1107.0521731000044,1107.4653914666308,1107.7746106999693,1107.7610465000034,1107.7611421999754,1107.7746106999693,1107.7746106999693,1107.7746106999693,1115.8145161999855,846,1,[8.05152989999624],[8.051537199993618],1,001,2024-11-12_13h08.55.177,Intentional Binding Task,2024.1.5,None,2024-11-12 13h09.06.533314 +0530,
0.7,1000,exp,15,1,181,5,1115.8301934999763,,1115.8151784999645,1115.8301934999763,1116.8302907999605,1116.8302907999605,1116.8302907999605,1118.0337969999528,space,1.1871450999751687,None,1118.034679399978,1118.7464069666496,1119.0551059999852,1119.0409520999528,1119.041004300001,1119.0551059999852,1119.0551059999852,1119.0551059999852,1120.6633415999822,956,1,[1.6205560000380501],[1.620563900039997],1,001,2024-11-12_13h08.55.177,Intentional Binding Task,2024.1.5,None,2024-11-12 13h09.06.533314 +0530,
0.1,1000,exp,15,2,182,9,1120.6790733999806,,1120.6639917999855,1120.6790733999806,1121.6787298999843,1121.6787298999843,1121.6787298999843,1122.6323405999574,space,0.9388401999603957,None,1122.6332628999953,1122.7456234666208,1123.0553001999506,1123.0409880999941,1123.0410497999983,1123.0553001999506,1123.0553001999506,1123.0553001999506,1124.9299407000071,895,1,[1.8866863999865018],[1.8866974999546073],1,001,2024-11-12_13h08.55.177,Intentional Binding Task,2024.1.5,None,2024-11-12 13h09.06.533314 +0530,
0.1,1000,exp,15,3,183,3,1124.9447345999652,,1124.9306156999664,1124.9447345999652,1125.9447953999625,1125.9447953999625,1125.9447953999625,1126.7799441999523,space,0.8251371000078507,None,1126.7806355999783,1126.8945016666587,1127.2052421999979,1127.1907055999618,1127.190756099997,1127.2052421999979,1127.2052421999979,1127.2052421999979,1129.7618508999585,329,1,[2.5691224999609403],[2.5691331999842077],1,001,2024-11-12_13h08.55.177,Intentional Binding Task,2024.1.5,None,2024-11-12 13h09.06.533314 +0530,
0.1,400,unexp,15,4,184,0,1129.7772429999895,,1129.762605099997,1129.7772429999895,1130.777205499995,1130.777205499995,1130.777205499995,1131.5948870999855,space,0.8008299000211991,None,1131.595743599988,1131.7102660666608,1132.0249747000053,1132.0112091999617,1132.0112676999997,1132.0249747000053,1132.0249747000053,1132.0249747000053,1134.5442117999773,856,1,[2.5309306000126526],[2.5309401999693364],1,001,2024-11-12_13h08.55.177,Intentional Binding Task,2024.1.5,None,2024-11-12 13h09.06.533314 +0530,
0.7,1000,exp,15,5,185,8,1134.5594748999574,,1134.544876799977,1134.5594748999574,1135.5597193999565,1135.5597193999565,1135.5597193999565,1136.6454662999604,space,1.0700044000404887,None,1136.646282200003,1137.359076066645,1137.6651040999568,1137.6518364999793,1137.6518878999632,1137.6651040999568,1137.6651040999568,1137.6651040999568,1141.592333299981,754,1,[3.938562399998773],[3.938568099983968],1,001,2024-11-12_13h08.55.177,Intentional Binding Task,2024.1.5,None,2024-11-12 13h09.06.533314 +0530,
0.4,400,unexp,15,6,186,1,1141.6080180999706,,1141.592833899951,1141.6080180999706,1142.6079179999651,1142.6079179999651,1142.6079179999651,1144.8108576999512,space,2.198681099980604,None,1144.81177749997,1145.2242397666598,1145.532017999969,1145.5208235000027,1145.5208556999569,1145.532017999969,1145.532017999969,1145.532017999969,1147.741901499976,395,1,[2.218488199985586],[2.2184987999498844],1,001,2024-11-12_13h08.55.177,Intentional Binding Task,2024.1.5,None,2024-11-12 13h09.06.533314 +0530,
0.1,1000,exp,15,7,187,6,1147.756681800005,,1147.7430213000043,1147.756681800005,1148.7566981999553,1148.7566981999553,1148.7566981999553,1149.626043599972,space,0.8664056999841705,None,1149.6267576999962,1149.7397986666222,1150.040223399992,1150.025994799973,1150.0260144000058,1150.040223399992,1150.040223399992,1150.040223399992,1152.1568082000013,295,1,[2.1296655999612994],[2.1296730999602005],1,001,2024-11-12_13h08.55.177,Intentional Binding Task,2024.1.5,None,2024-11-12 13h09.06.533314 +0530,
0.7,1000,exp,15,8,188,11,1152.1721236999729,,1152.157438299968,1152.1721236999729,1153.1725599999772,1153.1725599999772,1153.1725599999772,1153.723680199997,space,0.5378199000260793,None,1153.7242778999498,1154.4387265666194,1154.7550526999985,1154.7415680999984,1154.7416230999515,1154.7550526999985,1154.7550526999985,1154.7550526999985,1157.9724390999763,495,1,[3.22795169998426],[3.227963400015142],1,001,2024-11-12_13h08.55.177,Intentional Binding Task,2024.1.5,None,2024-11-12 13h09.06.533314 +0530,
0.7,400,unexp,15,9,189,2,1157.9876452999888,,1157.973547099973,1157.9876452999888,1158.9869442000054,1158.9869442000054,1158.9869442000054,1159.6237999000004,space,0.6270809999550693,None,1159.6246360999648,1160.3376722666474,1160.64490819996,1160.631339399959,1160.631403699983,1160.64490819996,1160.64490819996,1160.64490819996,1162.4378447000054,695,1,[1.8042841000133194],[1.8042930999654345],1,001,2024-11-12_13h08.55.177,Intentional Binding Task,2024.1.5,None,2024-11-12 13h09.06.533314 +0530,
0.4,1000,exp,15,10,190,10,1162.4536891999887,,1162.4386985999881,1162.4536891999887,1163.4369082999765,1163.4369082999765,1163.4537390999612,1164.039766999951,space,0.5930734000285156,None,1164.0406453000032,1164.453414166641,1164.7633045999683,1164.7508228999795,1164.750869099982,1164.7633045999683,1164.7633045999683,1164.7633045999683,1168.1201096999575,943,1,[3.3667181999771856],[3.366726499982178],1,001,2024-11-12_13h08.55.177,Intentional Binding Task,2024.1.5,None,2024-11-12 13h09.06.533314 +0530,
0.4,1000,exp,15,11,191,4,1168.136109999963,,1168.1208155999775,1168.136109999963,1169.1358825999778,1169.1358825999778,1169.1358825999778,1170.8559830999584,space,1.716518700006418,None,1170.8569562999764,1171.2687369666567,1171.5769955999567,1171.5636321000056,1171.5636852000025,1171.5769955999567,1171.5769955999567,1171.5769955999567,1174.218875499966,432,1,[2.6529756999807432],[2.652983799984213],1,001,2024-11-12_13h08.55.177,Intentional Binding Task,2024.1.5,None,2024-11-12 13h09.06.533314 +0530,
0.1,400,unexp,16,0,192,0,1174.2346183999907,,1174.2197129999986,1174.2346183999907,1175.2346250999835,1175.2346250999835,1175.2346250999835,1176.6030175999622,space,1.3543173000216484,None,1176.6037238999852,1176.7177287666166,1177.0253550999914,1177.0109289999818,1177.0109777000034,1177.0253550999914,1177.0253550999914,1177.0253550999914,1180.5840992999729,654,1,[3.5712302000029013],[3.5712378000025637],1,001,2024-11-12_13h08.55.177,Intentional Binding Task,2024.1.5,None,2024-11-12 13h09.06.533314 +0530,
0.7,1000,exp,16,1,193,11,1180.5995900999987,,1180.584702299966,1180.5995900999987,1181.5997251999797,1181.5997251999797,1181.5997251999797,1182.4508617999963,space,0.843457400042098,None,1182.4514422999928,1183.1662519666172,1183.4754245999502,1183.4612935999758,1183.4613504000008,1183.4754245999502,1183.4754245999502,1183.4754245999502,1185.516520999954,345,1,[2.0525859000044875],[2.052594600012526],1,001,2024-11-12_13h08.55.177,Intentional Binding Task,2024.1.5,None,2024-11-12 13h09.06.533314 +0530,
0.7,400,unexp,16,2,194,2,1185.5320702999597,,1185.5172833999968,1185.5320702999597,1186.5322627999703,1186.5322627999703,1186.5322627999703,1187.2534600999788,space,0.7179644999559969,None,1187.2542994999676,1187.9652468666357,1188.2755772999953,1188.261514999962,1188.2615765999653,1188.2755772999953,1188.2755772999953,1188.2755772999953,1190.7153693999862,567,1,[2.451254899962805],[2.4512621999601834],1,001,2024-11-12_13h08.55.177,Intentional Binding Task,2024.1.5,None,2024-11-12 13h09.06.533314 +0530,
0.1,1000,exp,16,3,195,3,1190.7308873999864,,1190.7159743999946,1190.7308873999864,1191.7311252999934,1191.7311252999934,1191.7311252999934,1192.583487499971,space,0.8489190000109375,None,1192.5845102999592,1192.6974143666487,1193.0053336999845,1192.9911954999552,1192.9912725999602,1193.0053336999845,1193.0053336999845,1193.0053336999845,1195.282185799966,125,1,[2.2883099000318907],[2.288322100008372],1,001,2024-11-12_13h08.55.177,Intentional Binding Task,2024.1.5,None,2024-11-12 13h09.06.533314 +0530,
0.4,1000,exp,16,4,196,10,1195.2969376999536,,1195.2830900999834,1195.2969376999536,1196.2968321999651,1196.2968321999651,1196.2968321999651,1196.8654419999802,space,0.5526209999807179,None,1196.866222599987,1197.27997956664,1197.5952292999718,1197.5809940999607,1197.5810513999895,1197.5952292999718,1197.5952292999718,1197.5952292999718,1199.8135177000077,256,1,[2.230028800026048],[2.230038100038655],1,001,2024-11-12_13h08.55.177,Intentional Binding Task,2024.1.5,None,2024-11-12 13h09.06.533314 +0530,
0.4,1000,exp,16,5,197,4,1199.829214999976,,1199.8143011999782,1199.829214999976,1200.8291597999632,1200.8291597999632,1200.8291597999632,1201.2317178999656,space,0.3962026999797672,None,1201.2324820999638,1201.6456924666456,1201.9547623999533,1201.9411918999976,1201.9412462000037,1201.9547623999533,1201.9547623999533,1201.9547623999533,1203.6630281999824,643,1,[1.7196307000122033],[1.719642499985639],1,001,2024-11-12_13h08.55.177,Intentional Binding Task,2024.1.5,None,2024-11-12 13h09.06.533314 +0530,
0.4,400,unexp,16,6,198,1,1203.6783385999734,,1203.6634927999694,1203.6783385999734,1204.678027499991,1204.678027499991,1204.678027499991,1205.1794526999583,space,0.4929596000001766,None,1205.1798887999612,1205.5945923666625,1205.904600699956,1205.8908336999593,1205.8908881999669,1205.904600699956,1205.904600699956,1205.904600699956,1207.6453088999842,876,1,[1.752204000018537],[1.7522110000136308],1,001,2024-11-12_13h08.55.177,Intentional Binding Task,2024.1.5,None,2024-11-12 13h09.06.533314 +0530,
0.1,1000,exp,16,7,199,6,1207.6605793999624,,1207.6459918000037,1207.6605793999624,1208.6608405999723,1208.6608405999723,1208.6608405999723,1209.145034999994,space,0.4695108999731019,None,1209.1457132999785,1209.2604568666468,1209.5764725999907,1209.5613645999692,1209.5614291999955,1209.5764725999907,1209.5764725999907,1209.5764725999907,1212.394041099993,345,1,[2.830269700032659],[2.830276800028514],1,001,2024-11-12_13h08.55.177,Intentional Binding Task,2024.1.5,None,2024-11-12 13h09.06.533314 +0530,
